STUDYID,USUBJID,SUBJID,SITEID,ORIGPROT,AGE,AGEU,AGEGR1N,AGEGR1,SEX,RACE,RACEN,ETHNIC,ENRLFL,DTHFL,ARM,ACTARM,ENRLDT,EOSDT,EOSDTF,DTHDT,DTHDTF,EDUC,MARISTAT,BMI,BMIBLU,DX,AMYSTAT,AMYSTATC,TRACER,IMAGERES,ADASTT11,ADASTT13,CDGLOBAL,CDRSB,ECOGPTTT,ECOGSPTT,FAQTOTAL,FCISCORE,GDTOTAL,MMSCORE,MOCA,NPITOTAL,NPIQTOTL,DIGITSCR,LDELTOTL,LIMMTOTL,RAVLTFG,RAVLTFGP,RAVLTIMM,RAVLTLRN,TRABSCOR,APOE,MPACCDIGIT,MPACCTRAILSB
ADNI,ADNI-001-00221,221,1,ADNI1,67.5,Years,2,>=65,Male,White,6,Not Hispanic or Latino,Y,NA,NA,NA,3/23/2006,NA,NA,NA,NA,18,Married,NA,NA,DEM,NA,NA,NA,NA,24,35,1,7,NA,NA,22,NA,0,20,NA,NA,13,31,0,4,6,100,21,4,88,ε4/ε4,-16.485093,-15.467351
ADNI,ADNI-001-00222,222,1,ADNI1,85.9,Years,2,>=65,Male,White,6,Not Hispanic or Latino,Y,NA,NA,NA,3/17/2006,NA,NA,NA,NA,18,Married,NA,NA,MCI,NA,NA,NA,NA,10,18,0.5,3,NA,NA,10,NA,0,25,NA,NA,3,36,5,5,6,85.71,26,5,75,ε3/ε3,-8.751593,-7.836709
ADNI,ADNI-001-00223,223,1,ADNI1,78,Years,2,>=65,Female,White,6,Not Hispanic or Latino,Y,NA,NA,NA,3/24/2006,NA,NA,NA,NA,18,Married,NA,NA,CN,NA,NA,NA,NA,6.33,10.33,0,0,NA,NA,0,NA,0,30,NA,NA,0,32,19,21,10,90.91,41,6,129,ε3/ε4,1.714571,1.704998
ADNI,ADNI-001-00323,323,1,ADNI1,83.2,Years,2,>=65,Male,White,6,Not Hispanic or Latino,NA,NA,NA,NA,NA,NA,NA,NA,NA,NA,NA,NA,NA,NA,NA,NA,NA,NA,NA,NA,NA,NA,NA,NA,NA,NA,NA,NA,NA,NA,NA,NA,NA,NA,NA,NA,NA,NA,NA,ε3/ε4,NA,NA
ADNI,ADNI-001-00324,324,1,ADNI1,75.3,Years,2,>=65,Female,White,6,Not Hispanic or Latino,Y,NA,NA,NA,4/21/2006,NA,NA,NA,NA,14,Married,NA,NA,MCI,NA,NA,NA,NA,10.33,19.33,0.5,1.5,NA,NA,2,NA,0,24,NA,NA,0,38,1,7,6,66.67,42,2,104,ε3/ε3,-11.070588,-11.144506
ADNI,ADNI-001-00448,448,1,ADNI1,85.6,Years,2,>=65,Male,White,6,Not Hispanic or Latino,Y,Yes,NA,NA,5/15/2006,6/30/2015,M,6/30/2015,M,17,Married,NA,NA,MCI,NA,NA,NA,NA,9.67,15.67,0.5,1,NA,NA,0,NA,1,26,NA,NA,1,34,2,4,7,63.64,35,6,154,ε3/ε3,-7.916004,-8.553022
ADNI,ADNI-001-00546,546,1,ADNI1,79.4,Years,2,>=65,Male,White,6,Not Hispanic or Latino,Y,Yes,NA,NA,7/13/2006,6/30/2015,M,6/30/2015,M,16,Widowed,NA,NA,MCI,NA,NA,NA,NA,7,14,0.5,1.5,NA,NA,1,NA,1,28,NA,NA,2,34,7,9,5,71.43,23,5,77,ε3/ε4,-4.783842,-3.736613
ADNI,ADNI-001-00553,553,1,ADNI1,84.7,Years,2,>=65,Male,White,6,Not Hispanic or Latino,Y,NA,NA,NA,6/28/2006,NA,NA,NA,NA,18,Widowed,NA,NA,CN,NA,NA,NA,NA,5.33,7.33,0,0,NA,NA,0,NA,0,30,NA,NA,7,65,22,21,7,87.5,24,6,55,ε2/ε3,6.327653,5.148752
ADNI,ADNI-001-00572,572,1,ADNI1,78.8,Years,2,>=65,Male,White,6,Not Hispanic or Latino,Y,Yes,NA,NA,7/6/2006,6/30/2014,M,6/30/2014,M,14,Married,NA,NA,MCI,NA,NA,NA,NA,8.67,13.67,0.5,4,NA,NA,10,NA,2,26,NA,NA,0,38,4,9,5,100,27,0,67,ε4/ε4,-6.431851,-5.440226
ADNI,ADNI-001-00602,602,1,ADNI1,70.8,Years,2,>=65,Male,White,6,Not Hispanic or Latino,Y,NA,NA,NA,7/11/2006,12/11/2023,NA,NA,NA,17,Married,NA,NA,CN,NA,NA,NA,NA,8,13,0,0,NA,NA,0,NA,0,29,NA,NA,4,54,12,14,6,66.67,39,3,49,ε3/ε3,-0.541829,-0.364487
ADNI,ADNI-001-00610,610,1,ADNI1,79.1,Years,2,>=65,Male,White,6,Not Hispanic or Latino,Y,Yes,NA,NA,7/10/2006,10/3/2022,NA,6/30/2022,M,20,Married,NA,NA,CN,NA,NA,NA,NA,4,7,0,0,NA,NA,0,NA,0,29,NA,NA,2,40,15,17,3,25,49,7,94,ε3/ε3,0.50346,0.478954
ADNI,ADNI-001-00785,785,1,ADNI1,81.9,Years,2,>=65,Male,White,6,Not Hispanic or Latino,NA,NA,NA,NA,NA,NA,NA,NA,NA,NA,NA,NA,NA,NA,NA,NA,NA,NA,NA,NA,NA,NA,NA,NA,NA,NA,NA,NA,NA,NA,NA,NA,NA,NA,NA,NA,NA,NA,NA,NA,NA,NA
ADNI,ADNI-001-00814,814,1,ADNI1,71,Years,2,>=65,Female,White,6,Not Hispanic or Latino,Y,NA,NA,NA,9/27/2006,NA,NA,NA,NA,16,Married,NA,NA,DEM,NA,NA,NA,NA,19.33,32.33,0.5,4,NA,NA,13,NA,0,21,NA,NA,2,33,2,0,3,100,15,1,300,ε3/ε4,-14.86604,-17.032791
ADNI,ADNI-001-00929,929,1,ADNI1,82,Years,2,>=65,Male,White,6,Not Hispanic or Latino,Y,NA,NA,NA,11/8/2006,NA,NA,NA,NA,14,Married,NA,NA,DEM,NA,NA,NA,NA,11.67,20.67,1,6,NA,NA,10,NA,0,27,NA,NA,6,23,3,8,6,85.71,29,5,160,ε3/ε4,-8.896905,-8.54878
ADNI,ADNI-001-01142,1142,1,ADNI1,86.4,Years,2,>=65,Female,White,6,Not Hispanic or Latino,NA,NA,NA,NA,NA,NA,NA,NA,NA,NA,NA,NA,NA,NA,NA,NA,NA,NA,NA,NA,NA,NA,NA,NA,NA,NA,NA,NA,NA,NA,NA,NA,NA,NA,NA,NA,NA,NA,NA,ε3/ε3,NA,NA
ADNI,ADNI-001-01162,1162,1,ADNI1,78.3,Years,2,>=65,Male,White,6,Not Hispanic or Latino,NA,NA,NA,NA,NA,NA,NA,NA,NA,NA,NA,NA,NA,NA,NA,NA,NA,NA,NA,NA,NA,NA,NA,NA,NA,NA,NA,NA,NA,NA,NA,NA,NA,NA,NA,NA,NA,NA,NA,ε3/ε3,NA,NA
ADNI,ADNI-001-01224,1224,1,ADNI1,81.1,Years,2,>=65,Male,White,6,Not Hispanic or Latino,Y,NA,NA,NA,2/7/2007,NA,NA,NA,NA,16,Married,NA,NA,MCI,NA,NA,NA,NA,12,21,0.5,1,NA,NA,3,NA,1,26,NA,NA,3,30,6,9,4,57.14,27,1,74,ε3/ε3,-8.202913,-6.667385
ADNI,ADNI-001-01327,1327,1,ADNI1,77,Years,2,>=65,Female,White,6,Not Hispanic or Latino,NA,NA,NA,NA,NA,NA,NA,NA,NA,NA,NA,NA,NA,NA,NA,NA,NA,NA,NA,NA,NA,NA,NA,NA,NA,NA,NA,NA,NA,NA,NA,NA,NA,NA,NA,NA,NA,NA,NA,NA,NA,NA
ADNI,ADNI-001-01341,1341,1,ADNI1,71.6,Years,2,>=65,Female,White,6,Not Hispanic or Latino,Y,NA,NA,NA,4/3/2007,NA,NA,NA,NA,12,Married,NA,NA,DEM,NA,NA,NA,NA,21,35,1,5,NA,NA,12,NA,3,24,NA,NA,8,40,0,1,4,100,18,1,300,ε3/ε4,-11.680421,-14.533358
ADNI,ADNI-001-02010,2010,1,ADNIGO,62.9,Years,1,<65,Female,More than one race,7,Not Hispanic or Latino,Y,NA,NA,NA,7/8/2010,NA,NA,NA,NA,20,Divorced,NA,NA,MCI,Elevated,Non Elevated,FBP,6MM,3,6,0.5,0.5,NA,NA,0,NA,1,30,NA,NA,1,NA,9,14,4,26.67,46,12,42,ε3/ε4,NA,1.037064
ADNI,ADNI-001-02013,2013,1,ADNIGO,72.9,Years,2,>=65,Male,White,6,Not Hispanic or Latino,NA,NA,NA,NA,NA,NA,NA,NA,NA,NA,NA,NA,NA,NA,NA,NA,NA,NA,NA,NA,NA,NA,NA,NA,NA,NA,NA,NA,NA,NA,NA,NA,NA,NA,NA,NA,NA,NA,NA,NA,NA,NA
ADNI,ADNI-001-02014,2014,1,ADNIGO,57.6,Years,1,<65,Male,White,6,Not Hispanic or Latino,NA,NA,NA,NA,NA,NA,NA,NA,NA,NA,NA,NA,NA,NA,NA,NA,NA,NA,NA,NA,NA,NA,NA,NA,NA,NA,NA,NA,NA,NA,NA,NA,NA,NA,NA,NA,NA,NA,NA,NA,NA,NA
ADNI,ADNI-001-02024,2024,1,ADNIGO,73.6,Years,2,>=65,Male,White,6,Not Hispanic or Latino,NA,NA,NA,NA,NA,NA,NA,NA,NA,NA,NA,NA,NA,NA,NA,NA,NA,NA,NA,NA,NA,NA,NA,NA,NA,NA,NA,NA,NA,NA,NA,NA,NA,NA,NA,NA,NA,NA,NA,NA,NA,NA
ADNI,ADNI-001-02025,2025,1,ADNIGO,73.2,Years,2,>=65,Male,White,6,Not Hispanic or Latino,NA,NA,NA,NA,NA,NA,NA,NA,NA,NA,NA,NA,NA,NA,NA,NA,NA,NA,NA,NA,NA,NA,NA,NA,NA,NA,NA,NA,NA,NA,NA,NA,NA,NA,NA,NA,NA,NA,NA,NA,NA,NA
ADNI,ADNI-001-02043,2043,1,ADNIGO,72.3,Years,2,>=65,Female,White,6,Not Hispanic or Latino,Y,NA,NA,NA,9/7/2010,NA,NA,NA,NA,20,Married,NA,NA,MCI,Elevated,Elevated,FBP,6MM,4.67,7.67,0.5,2,NA,NA,0,NA,0,30,NA,NA,2,NA,9,11,-1,-8.33,55,6,101,ε3/ε4,NA,-1.081433
ADNI,ADNI-001-02073,2073,1,ADNIGO,63.4,Years,1,<65,Female,White,6,Not Hispanic or Latino,Y,NA,NA,NA,9/21/2010,NA,NA,NA,NA,20,Married,NA,NA,MCI,Elevated,Elevated,FBP,6MM,6.33,8.33,0.5,1,NA,NA,0,NA,2,29,NA,NA,0,NA,9,10,5,33.33,50,11,63,ε3/ε3,NA,-0.269249
ADNI,ADNI-001-02112,2112,1,ADNIGO,83.8,Years,2,>=65,Male,White,6,Not Hispanic or Latino,NA,NA,NA,NA,NA,NA,NA,NA,NA,NA,NA,NA,NA,NA,NA,NA,NA,NA,NA,NA,NA,NA,NA,NA,NA,NA,NA,NA,NA,NA,NA,NA,NA,NA,NA,NA,NA,NA,NA,NA,NA,NA
ADNI,ADNI-001-02132,2132,1,ADNIGO,65.1,Years,2,>=65,Male,White,6,Not Hispanic or Latino,NA,NA,NA,NA,NA,NA,NA,NA,NA,NA,NA,NA,NA,NA,NA,NA,NA,NA,NA,NA,NA,NA,NA,NA,NA,NA,NA,NA,NA,NA,NA,NA,NA,NA,NA,NA,NA,NA,NA,NA,NA,NA
ADNI,ADNI-001-02215,2215,1,ADNIGO,NA,Years,NA,NA,NA,NA,NA,NA,NA,NA,NA,NA,NA,NA,NA,NA,NA,NA,NA,NA,NA,NA,NA,NA,NA,NA,NA,NA,NA,NA,NA,NA,NA,NA,NA,NA,NA,NA,NA,NA,NA,NA,NA,NA,NA,NA,NA,NA,NA,NA
ADNI,ADNI-001-02280,2280,1,ADNIGO,NA,Years,NA,NA,NA,NA,NA,NA,NA,NA,NA,NA,NA,NA,NA,NA,NA,NA,NA,NA,NA,NA,NA,NA,NA,NA,NA,NA,NA,NA,NA,NA,NA,NA,NA,NA,NA,NA,NA,NA,NA,NA,NA,NA,NA,NA,NA,NA,NA,NA
ADNI,ADNI-001-02292,2292,1,ADNIGO,NA,Years,NA,NA,NA,NA,NA,NA,NA,NA,NA,NA,NA,NA,NA,NA,NA,NA,NA,NA,NA,NA,NA,NA,NA,NA,NA,NA,NA,NA,NA,NA,NA,NA,NA,NA,NA,NA,NA,NA,NA,NA,NA,NA,NA,NA,NA,NA,NA,NA
ADNI,ADNI-001-04213,4213,1,ADNI2,78.1,Years,2,>=65,Female,White,6,Not Hispanic or Latino,Y,NA,NA,NA,9/13/2011,NA,NA,NA,NA,14,Widowed,NA,NA,CN,Non Elevated,Non Elevated,FBP,6MM,6.67,7.67,0,0,NA,NA,0,NA,1,28,NA,1,NA,NA,11,11,1,7.69,55,8,69,ε3/ε3,NA,-0.247663
ADNI,ADNI-001-04219,4219,1,ADNI2,79.5,Years,2,>=65,Female,White,6,Not Hispanic or Latino,Y,NA,NA,NA,9/27/2011,NA,NA,NA,NA,17,Widowed,NA,NA,MCI,Non Elevated,Non Elevated,FBP,6MM,6.67,8.67,0.5,1,NA,NA,0,NA,1,30,NA,1,NA,NA,6,9,5,45.45,40,8,166,ε3/ε3,NA,-2.629381
ADNI,ADNI-001-04225,4225,1,ADNI2,69.9,Years,2,>=65,Male,White,6,Not Hispanic or Latino,Y,Yes,NA,NA,10/4/2011,3/4/2023,NA,6/30/2023,M,20,Married,NA,NA,CN,Elevated,Elevated,FBP,6MM,6,11,0,0,NA,NA,0,NA,0,28,NA,0,NA,NA,12,11,4,30.77,44,10,64,ε3/ε4,NA,-1.338917
ADNI,ADNI-001-04229,4229,1,ADNI2,66.4,Years,2,>=65,Male,White,6,Not Hispanic or Latino,Y,NA,NA,NA,9/27/2011,NA,NA,NA,NA,15,Married,NA,NA,MCI,Non Elevated,Non Elevated,FBP,6MM,8,11,0.5,0.5,NA,NA,0,NA,1,29,NA,0,NA,NA,4,4,7,100,25,4,104,ε3/ε3,NA,-3.434013
ADNI,ADNI-001-04237,4237,1,ADNI2,80.9,Years,2,>=65,Female,White,6,Not Hispanic or Latino,Y,Yes,NA,NA,10/13/2011,6/30/2014,M,6/30/2014,M,13,Never married,NA,NA,MCI,Non Elevated,Non Elevated,FBP,6MM,12.33,18.33,0.5,1,NA,NA,0,NA,1,29,NA,0,NA,NA,6,9,9,100,25,9,253,ε3/ε3,NA,-6.06771
ADNI,ADNI-001-04251,4251,1,ADNI2,72,Years,2,>=65,Male,White,6,Not Hispanic or Latino,Y,NA,NA,NA,10/7/2011,NA,NA,NA,NA,19,Married,NA,NA,MCI,Non Elevated,Non Elevated,FBP,6MM,9.33,13.33,0.5,0.5,NA,NA,0,NA,1,30,NA,2,NA,NA,8,10,5,55.56,42,1,91,ε3/ε3,NA,-1.634248
ADNI,ADNI-001-04262,4262,1,ADNI2,72.9,Years,2,>=65,Female,White,6,Not Hispanic or Latino,Y,NA,NA,NA,10/11/2011,NA,NA,NA,NA,16,Married,NA,NA,CN,Elevated,Elevated,FBP,6MM,6.67,8.67,0,0,NA,NA,1,NA,1,29,NA,3,NA,NA,12,11,2,13.33,52,9,85,ε3/ε3,NA,-0.135423
ADNI,ADNI-001-04264,4264,1,ADNI2,74.1,Years,2,>=65,Female,White,6,Not Hispanic or Latino,Y,NA,NA,NA,10/25/2011,NA,NA,NA,NA,18,Divorced,NA,NA,CN,NA,NA,NA,NA,2.67,5.67,0,0,NA,NA,NA,NA,0,29,NA,NA,NA,NA,12,15,13,100,48,7,94,ε2/ε2,NA,-0.37953
ADNI,ADNI-001-04270,4270,1,ADNI2,74.7,Years,2,>=65,Female,White,6,Not Hispanic or Latino,Y,NA,NA,NA,11/1/2011,NA,NA,NA,NA,16,Married,NA,NA,CN,Elevated,Elevated,FBP,6MM,4.67,6.67,0,0,NA,NA,0,NA,3,28,NA,3,NA,NA,13,14,4,26.67,51,11,55,ε3/ε4,NA,0.35222
ADNI,ADNI-001-04374,4374,1,ADNI2,65.1,Years,2,>=65,Male,White,6,Not Hispanic or Latino,NA,NA,NA,NA,NA,NA,NA,NA,NA,NA,NA,NA,NA,NA,NA,NA,NA,NA,NA,NA,NA,NA,NA,NA,NA,NA,NA,NA,NA,NA,NA,NA,NA,NA,NA,NA,NA,NA,NA,NA,NA,NA
ADNI,ADNI-001-04447,4447,1,ADNI2,67.6,Years,2,>=65,Female,White,6,Not Hispanic or Latino,Y,NA,NA,NA,1/31/2012,NA,NA,NA,NA,19,Divorced,NA,NA,MCI,Elevated,Elevated,FBP,6MM,4.67,6.67,0.5,0.5,NA,NA,1,NA,4,27,NA,2,NA,NA,11,13,8,66.67,44,7,115,ε3/ε4,NA,-2.856865
ADNI,ADNI-001-04450,4450,1,ADNI2,77,Years,2,>=65,Male,White,6,Not Hispanic or Latino,NA,NA,NA,NA,NA,NA,NA,NA,NA,NA,NA,NA,NA,NA,NA,NA,NA,NA,NA,NA,NA,NA,NA,NA,NA,NA,NA,NA,NA,NA,NA,NA,NA,NA,NA,NA,NA,NA,NA,NA,NA,NA
ADNI,ADNI-001-04473,4473,1,ADNI2,74.8,Years,2,>=65,Male,White,6,Not Hispanic or Latino,Y,NA,NA,NA,2/16/2012,10/17/2017,NA,NA,NA,16,Married,NA,NA,MCI,Elevated,Elevated,FBP,6MM,7.33,11.33,0.5,2,NA,NA,0,NA,2,27,NA,3,NA,NA,11,14,4,33.33,44,7,63,ε3/ε4,NA,-2.43773
ADNI,ADNI-001-04521,4521,1,ADNI2,70.1,Years,2,>=65,Male,White,6,Not Hispanic or Latino,Y,NA,NA,NA,2/23/2012,NA,NA,NA,NA,18,Married,NA,NA,MCI,Elevated,Elevated,FBP,6MM,11,18,0.5,3,NA,NA,11,NA,1,27,NA,6,NA,NA,2,4,5,71.43,27,3,148,ε3/ε4,NA,-8.644967
ADNI,ADNI-001-04654,4654,1,ADNI2,75.5,Years,2,>=65,Female,White,6,Not Hispanic or Latino,Y,Yes,NA,NA,4/26/2012,3/14/2022,NA,6/30/2022,M,18,Married,NA,NA,MCI,Non Elevated,Non Elevated,FBP,6MM,13.33,22.33,0.5,0.5,NA,NA,3,NA,0,29,NA,0,NA,NA,5,8,3,60,25,0,62,ε3/ε3,NA,-5.013343
ADNI,ADNI-001-04662,4662,1,ADNI2,77.6,Years,2,>=65,Female,White,6,Not Hispanic or Latino,NA,NA,NA,NA,NA,NA,NA,NA,NA,NA,NA,NA,NA,NA,NA,NA,NA,NA,NA,NA,NA,NA,NA,NA,NA,NA,NA,NA,NA,NA,NA,NA,NA,NA,NA,NA,NA,NA,NA,NA,NA,NA
ADNI,ADNI-001-04670,4670,1,ADNI2,72.2,Years,2,>=65,Female,White,6,Not Hispanic or Latino,NA,NA,NA,NA,NA,NA,NA,NA,NA,NA,NA,NA,NA,NA,NA,NA,NA,NA,NA,NA,NA,NA,NA,NA,NA,NA,NA,NA,NA,NA,NA,NA,NA,NA,NA,NA,NA,NA,NA,NA,NA,NA
ADNI,ADNI-001-04703,4703,1,ADNI2,69,Years,2,>=65,Male,White,6,Not Hispanic or Latino,NA,NA,NA,NA,NA,NA,NA,NA,NA,NA,NA,NA,NA,NA,NA,NA,NA,NA,NA,NA,NA,NA,NA,NA,NA,NA,NA,NA,NA,NA,NA,NA,NA,NA,NA,NA,NA,NA,NA,NA,NA,NA
ADNI,ADNI-001-04746,4746,1,ADNI2,71.2,Years,2,>=65,Female,White,6,Not Hispanic or Latino,Y,NA,NA,NA,6/14/2012,NA,NA,NA,NA,16,Married,NA,NA,MCI,Elevated,Elevated,FBP,6MM,8,12,0.5,0.5,NA,NA,2,NA,2,28,NA,7,NA,NA,5,7,6,100,24,2,88,ε3/ε3,NA,-3.073329
ADNI,ADNI-001-04799,4799,1,ADNI2,68,Years,2,>=65,Male,White,6,Not Hispanic or Latino,Y,NA,NA,NA,7/3/2012,NA,NA,NA,NA,14,Married,NA,NA,MCI,Elevated,Elevated,FBP,6MM,4.67,9.67,0.5,0.5,NA,NA,0,NA,2,29,NA,7,NA,NA,8,8,6,60,30,7,99,ε3/ε3,NA,-3.209153
ADNI,ADNI-001-05018,5018,1,ADNI2,73.4,Years,2,>=65,Male,White,6,Not Hispanic or Latino,Y,NA,NA,NA,11/15/2012,NA,NA,NA,NA,17,Married,NA,NA,DEM,Elevated,Elevated,FBP,6MM,23.33,33.33,1,5,NA,NA,17,NA,1,23,NA,34,NA,NA,0,0,4,100,18,1,NA,ε4/ε4,NA,-15.264061
ADNI,ADNI-001-05088,5088,1,ADNI2,70.1,Years,2,>=65,Female,White,6,Not Hispanic or Latino,NA,NA,NA,NA,NA,NA,NA,NA,NA,NA,NA,NA,NA,NA,NA,NA,NA,NA,NA,NA,NA,NA,NA,NA,NA,NA,NA,NA,NA,NA,NA,NA,NA,NA,NA,NA,NA,NA,NA,NA,NA,NA
ADNI,ADNI-001-05094,5094,1,ADNI2,79,Years,2,>=65,Male,White,6,Not Hispanic or Latino,NA,NA,NA,NA,NA,NA,NA,NA,NA,NA,NA,NA,NA,NA,NA,NA,NA,NA,NA,NA,NA,NA,NA,NA,NA,NA,NA,NA,NA,NA,NA,NA,NA,NA,NA,NA,NA,NA,NA,NA,NA,NA
ADNI,ADNI-001-05152,5152,1,ADNI2,77.4,Years,2,>=65,Female,White,6,Not Hispanic or Latino,NA,NA,NA,NA,NA,NA,NA,NA,NA,NA,NA,NA,NA,NA,NA,NA,NA,NA,NA,NA,NA,NA,NA,NA,NA,NA,NA,NA,NA,NA,NA,NA,NA,NA,NA,NA,NA,NA,NA,NA,NA,NA
ADNI,ADNI-001-05178,5178,1,ADNI2,68.7,Years,2,>=65,Male,White,6,Not Hispanic or Latino,Y,NA,NA,NA,5/28/2013,NA,NA,NA,NA,18,Married,NA,NA,CN,Non Elevated,Non Elevated,FBP,6MM,8.33,12.33,0,0,NA,NA,0,NA,1,27,NA,0,NA,NA,9,10,5,41.67,47,8,94,ε2/ε3,NA,-3.978819
ADNI,ADNI-001-05230,5230,1,ADNI2,73.5,Years,2,>=65,Female,White,6,Unknown,Y,NA,NA,NA,7/11/2013,NA,NA,NA,NA,19,Never married,NA,NA,CN,Elevated,Elevated,FBP,6MM,6,10,0,0,NA,NA,0,NA,0,29,NA,0,NA,NA,13,14,5,55.56,35,7,71,ε3/ε4,NA,0.066796
ADNI,ADNI-001-05256,5256,1,ADNI2,70.5,Years,2,>=65,Female,White,6,Not Hispanic or Latino,Y,NA,NA,NA,7/30/2013,NA,NA,NA,NA,20,Married,NA,NA,CN,Elevated,Elevated,FBP,6MM,5,6,0,0,NA,NA,3,NA,2,30,NA,2,NA,NA,18,19,1,6.67,62,8,72,ε3/ε4,NA,3.873625
ADNI,ADNI-001-06006,6006,1,ADNI3,78.9,Years,2,>=65,Male,White,6,Not Hispanic or Latino,NA,NA,NA,NA,NA,3/16/2017,NA,NA,NA,NA,NA,NA,NA,NA,NA,NA,NA,NA,NA,NA,NA,NA,NA,NA,NA,NA,NA,NA,NA,NA,NA,NA,NA,NA,NA,NA,NA,NA,NA,NA,NA,NA
ADNI,ADNI-001-06007,6007,1,ADNI3,76.8,Years,2,>=65,Female,White,6,Not Hispanic or Latino,Y,NA,NA,NA,4/11/2017,NA,NA,NA,NA,19,Married,NA,NA,CN,Elevated,Elevated,FBP,6MM,3,6,0,0,1.846153846,1.128205128,0,66,NA,29,21,2,NA,NA,12,12,10,100,32,7,66,ε4/ε4,NA,0.476882
ADNI,ADNI-001-06009,6009,1,ADNI3,67.6,Years,2,>=65,Male,White,6,Not Hispanic or Latino,Y,NA,NA,NA,5/16/2017,NA,NA,NA,NA,16,Married,NA,NA,CN,Non Elevated,Non Elevated,FBP,6MM,2.33,3.33,0,0,1.263157895,1.58974359,1,64,NA,29,28,1,NA,NA,10,13,4,33.33,48,8,55,ε3/ε4,NA,0.864137
ADNI,ADNI-001-06011,6011,1,ADNI3,73,Years,2,>=65,Female,White,6,Not Hispanic or Latino,NA,NA,NA,NA,NA,4/25/2017,NA,NA,NA,NA,NA,NA,NA,NA,NA,NA,NA,NA,NA,NA,NA,NA,NA,NA,NA,NA,NA,NA,NA,NA,NA,NA,NA,NA,NA,NA,NA,NA,NA,NA,NA,NA
ADNI,ADNI-001-06012,6012,1,ADNI3,81.4,Years,2,>=65,Male,White,6,Not Hispanic or Latino,NA,NA,NA,NA,NA,4/27/2017,NA,NA,NA,NA,NA,NA,NA,NA,NA,NA,NA,NA,NA,NA,NA,NA,NA,NA,NA,NA,NA,NA,NA,NA,NA,NA,NA,NA,NA,NA,NA,NA,NA,NA,NA,NA
ADNI,ADNI-001-06021,6021,1,ADNI3,67.5,Years,2,>=65,Male,White,6,Not Hispanic or Latino,NA,NA,NA,NA,NA,5/23/2017,NA,NA,NA,NA,NA,NA,NA,NA,NA,NA,NA,NA,NA,NA,NA,NA,NA,NA,NA,NA,NA,NA,NA,NA,NA,NA,NA,NA,NA,NA,NA,NA,NA,NA,NA,NA
ADNI,ADNI-001-06030,6030,1,ADNI3,65.2,Years,2,>=65,Female,White,6,Not Hispanic or Latino,Y,NA,NA,NA,7/25/2017,8/30/2022,NA,NA,NA,18,Married,NA,NA,CN,Non Elevated,Non Elevated,FBP,6MM,4.33,5.33,0,0,1.282051282,1.205128205,0,74,NA,30,29,2,NA,NA,11,11,1,6.67,45,12,59,ε3/ε4,NA,1.831763
ADNI,ADNI-001-06040,6040,1,ADNI3,85.3,Years,2,>=65,Female,White,6,Not Hispanic or Latino,NA,NA,NA,NA,NA,7/6/2017,NA,NA,NA,NA,NA,NA,NA,NA,NA,NA,NA,NA,NA,NA,NA,NA,NA,NA,NA,NA,NA,NA,NA,NA,NA,NA,NA,NA,NA,NA,NA,NA,NA,NA,NA,NA
ADNI,ADNI-001-06053,6053,1,ADNI3,65.8,Years,2,>=65,Male,White,6,Not Hispanic or Latino,Y,NA,NA,NA,8/24/2017,NA,NA,NA,NA,16,Married,NA,NA,CN,Non Elevated,Non Elevated,FBP,6MM,3.67,5.67,0,0,1.447368421,1,0,72,NA,30,26,0,NA,NA,14,18,0,0,48,8,69,ε2/ε3,NA,1.792452
ADNI,ADNI-001-06066,6066,1,ADNI3,68.4,Years,2,>=65,Female,White,6,Not Hispanic or Latino,Y,NA,NA,NA,9/7/2017,NA,NA,NA,NA,20,Divorced,NA,NA,CN,Elevated,Elevated,FBP,6MM,3.33,5.33,0,0,1.702702703,1,0,65,NA,30,30,0,NA,NA,15,16,3,25,44,7,84,ε2/ε4,NA,1.602424
ADNI,ADNI-001-06070,6070,1,ADNI3,66.5,Years,2,>=65,Female,White,6,Not Hispanic or Latino,NA,NA,NA,NA,NA,8/17/2017,NA,NA,NA,NA,NA,NA,NA,NA,NA,NA,NA,NA,NA,NA,NA,NA,NA,NA,NA,NA,NA,NA,NA,NA,NA,NA,NA,NA,NA,NA,NA,NA,NA,NA,NA,NA
ADNI,ADNI-001-06103,6103,1,ADNI3,70,Years,2,>=65,Female,White,6,Not Hispanic or Latino,Y,NA,NA,NA,11/21/2017,NA,NA,NA,NA,16,Married,NA,NA,CN,Non Elevated,Non Elevated,FBP,6MM,3.33,4.33,0,0,1.025641026,NA,0,70,NA,30,29,2,NA,NA,16,18,1,7.69,59,9,69,ε3/ε3,NA,2.884499
ADNI,ADNI-001-06139,6139,1,ADNI3,63.8,Years,1,<65,Female,White,6,Not Hispanic or Latino,NA,NA,NA,NA,NA,12/5/2017,NA,NA,NA,NA,NA,NA,NA,NA,NA,NA,NA,NA,NA,NA,NA,NA,NA,NA,NA,NA,NA,NA,NA,NA,NA,NA,NA,NA,NA,NA,NA,NA,NA,NA,NA,NA
ADNI,ADNI-001-06404,6404,1,ADNI3,66.2,Years,2,>=65,Male,White,6,Not Hispanic or Latino,Y,NA,NA,NA,6/26/2018,NA,NA,NA,NA,18,Married,NA,NA,CN,Non Elevated,Non Elevated,FBP,6MM,5.33,9.33,0,0,1.179487179,1.102564103,0,66,NA,29,26,3,NA,NA,10,11,5,50,31,6,55,ε3/ε3,NA,-0.695037
ADNI,ADNI-001-06456,6456,1,ADNI3,86.5,Years,2,>=65,Male,White,6,Not Hispanic or Latino,Y,Yes,NA,NA,7/10/2018,2/8/2025,NA,6/30/2025,M,20,Widowed,NA,NA,CN,Elevated,Non Elevated,FBP,6MM,4.67,5.67,0,0,1.205128205,1,0,70,NA,30,24,0,NA,NA,12,15,4,40,32,8,56,ε2/ε3,NA,2.243727
ADNI,ADNI-001-06652,6652,1,ADNI3,86.4,Years,2,>=65,Female,White,6,Not Hispanic or Latino,Y,NA,NA,NA,1/8/2019,NA,NA,NA,NA,20,Widowed,NA,NA,MCI,Non Elevated,Non Elevated,FBP,6MM,10.67,15.67,0.5,2.5,2.641025641,1.289473684,2,56,NA,29,25,3,NA,NA,10,16,7,63.64,46,4,149,ε3/ε3,NA,-2.591828
ADNI,ADNI-001-06676,6676,1,ADNI3,80.2,Years,2,>=65,Female,White,6,Not Hispanic or Latino,NA,NA,NA,NA,NA,1/17/2019,NA,NA,NA,NA,NA,NA,NA,NA,NA,NA,NA,NA,NA,NA,NA,NA,NA,NA,NA,NA,NA,NA,NA,NA,NA,NA,NA,NA,NA,NA,NA,NA,NA,NA,NA,NA
ADNI,ADNI-001-06680,6680,1,ADNI3,64.2,Years,1,<65,Male,White,6,Not Hispanic or Latino,NA,NA,NA,NA,NA,5/7/2019,NA,NA,NA,NA,NA,NA,NA,NA,NA,NA,NA,NA,NA,NA,NA,NA,NA,NA,NA,NA,NA,NA,NA,NA,NA,NA,NA,NA,NA,NA,NA,NA,NA,NA,NA,NA
ADNI,ADNI-001-06695,6695,1,ADNI3,66.3,Years,2,>=65,Male,White,6,Not Hispanic or Latino,Y,NA,NA,NA,4/8/2019,NA,NA,NA,NA,18,Married,NA,NA,MCI,Elevated,Elevated,FBP,6MM,17,24,0.5,4.5,1.486486486,2.763157895,7,53,NA,25,22,8,NA,NA,2,8,5,83.33,30,1,93,ε3/ε4,NA,-9.216524
ADNI,ADNI-001-06864,6864,1,ADNI3,68.5,Years,2,>=65,Female,White,6,Hispanic or Latino,NA,NA,NA,NA,NA,6/11/2020,NA,NA,NA,NA,NA,NA,NA,NA,NA,NA,NA,NA,NA,NA,NA,NA,NA,NA,NA,NA,NA,NA,NA,NA,NA,NA,NA,NA,NA,NA,NA,NA,NA,NA,NA,NA
ADNI,ADNI-002-00041,41,2,ADNI1,71,Years,2,>=65,Female,White,6,Not Hispanic or Latino,Y,NA,NA,NA,11/14/2005,NA,NA,NA,NA,14,Married,NA,NA,MCI,NA,NA,NA,NA,18.33,28.33,0.5,1.5,NA,NA,4,NA,2,25,NA,NA,0,56,2,5,4,100,22,-1,145,ε4/ε4,-9.208723,-11.85561
ADNI,ADNI-002-00068,68,2,ADNI1,74.5,Years,2,>=65,Female,White,6,Not Hispanic or Latino,Y,NA,NA,NA,12/14/2005,NA,NA,NA,NA,12,Married,NA,NA,CN,NA,NA,NA,NA,2,4,0,0,NA,NA,0,NA,1,30,NA,NA,0,61,14,17,4,36.36,41,8,58,ε3/ε3,3.646255,2.731469
ADNI,ADNI-002-00070,70,2,ADNI1,74,Years,2,>=65,Male,White,6,Not Hispanic or Latino,Y,NA,NA,NA,2/2/2006,NA,NA,NA,NA,14,Married,NA,NA,CN,NA,NA,NA,NA,9.67,14.67,0,0,NA,NA,0,NA,1,27,NA,NA,0,55,13,14,2,28.57,29,4,111,ε3/ε3,-1.858995,-3.757651
ADNI,ADNI-002-00101,101,2,ADNI1,73.6,Years,2,>=65,Male,White,6,Not Hispanic or Latino,Y,NA,NA,NA,1/4/2006,NA,NA,NA,NA,18,Married,NA,NA,MCI,NA,NA,NA,NA,7,11,0.5,0.5,NA,NA,0,NA,0,27,NA,NA,2,49,8,13,5,71.43,24,3,50,ε4/ε4,-3.358237,-2.739331
ADNI,ADNI-002-00128,128,2,ADNI1,64.1,Years,1,<65,Female,White,6,Not Hispanic or Latino,Y,Yes,NA,NA,2/6/2006,6/30/2012,M,6/30/2012,M,20,Widowed,NA,NA,MCI,NA,NA,NA,NA,10.67,16.67,0.5,0.5,NA,NA,0,NA,1,29,NA,NA,1,52,1,9,9,81.82,36,7,66,ε4/ε4,-4.405383,-4.749793
ADNI,ADNI-002-00249,249,2,ADNI1,72,Years,2,>=65,Female,White,6,Not Hispanic or Latino,Y,NA,NA,NA,3/14/2006,NA,NA,NA,NA,16,Married,NA,NA,MCI,NA,NA,NA,NA,7.67,15.67,0.5,1.5,NA,NA,6,NA,2,29,NA,NA,1,41,0,15,9,100,32,5,73,ε3/ε4,-6.809284,-6.319125
ADNI,ADNI-002-00293,293,2,ADNI1,87.8,Years,2,>=65,Male,White,6,Not Hispanic or Latino,Y,Yes,NA,NA,3/28/2006,6/30/2010,M,6/30/2010,M,12,Married,NA,NA,MCI,NA,NA,NA,NA,11,18,0.5,1,NA,NA,0,NA,2,25,NA,NA,0,26,3,5,5,100,22,2,300,ε3/ε4,-9.784456,-11.265022
ADNI,ADNI-002-00316,316,2,ADNI1,80.9,Years,2,>=65,Male,White,6,Not Hispanic or Latino,Y,NA,NA,NA,4/24/2006,NA,NA,NA,NA,16,Married,NA,NA,DEM,NA,NA,NA,NA,19,29,1,5,NA,NA,3,NA,1,26,NA,NA,3,35,0,2,9,90,28,7,282,ε4/ε4,-10.988924,-13.200492
ADNI,ADNI-002-00318,318,2,ADNI1,82.8,Years,2,>=65,Female,White,6,Not Hispanic or Latino,NA,NA,NA,NA,NA,NA,NA,NA,NA,NA,NA,NA,NA,NA,NA,NA,NA,NA,NA,NA,NA,NA,NA,NA,NA,NA,NA,NA,NA,NA,NA,NA,NA,NA,NA,NA,NA,NA,NA,NA,NA,NA
ADNI,ADNI-002-00344,344,2,ADNI1,78.8,Years,2,>=65,Male,White,6,Not Hispanic or Latino,Y,NA,NA,NA,4/19/2006,NA,NA,NA,NA,13,Married,NA,NA,MCI,NA,NA,NA,NA,13.67,23.67,0.5,1.5,NA,NA,4,NA,0,26,NA,NA,0,45,1,7,6,100,26,3,80,ε4/ε4,-9.722498,-9.846121
ADNI,ADNI-002-00414,414,2,ADNI1,79.6,Years,2,>=65,Female,White,6,Not Hispanic or Latino,Y,NA,NA,NA,6/2/2006,NA,NA,NA,NA,18,Widowed,NA,NA,MCI,NA,NA,NA,NA,12.67,21.67,0.5,1,NA,NA,2,NA,2,25,NA,NA,0,61,0,7,7,100,35,0,96,ε3/ε4,-8.771189,-10.905347
ADNI,ADNI-002-00698,698,2,ADNI1,74.3,Years,2,>=65,Male,White,6,Not Hispanic or Latino,Y,NA,NA,NA,8/23/2006,10/4/2019,NA,NA,NA,18,Married,NA,NA,MCI,NA,NA,NA,NA,10,18,0.5,1.5,NA,NA,1,NA,2,29,NA,NA,0,35,5,9,4,44.44,31,7,102,ε3/ε4,-5.446911,-5.179583
ADNI,ADNI-002-00943,943,2,ADNI1,77,Years,2,>=65,Male,White,6,Not Hispanic or Latino,NA,NA,NA,NA,NA,NA,NA,NA,NA,NA,NA,NA,NA,NA,NA,NA,NA,NA,NA,NA,NA,NA,NA,NA,NA,NA,NA,NA,NA,NA,NA,NA,NA,NA,NA,NA,NA,NA,NA,ε2/ε3,NA,NA
ADNI,ADNI-002-00946,946,2,ADNI1,71.8,Years,2,>=65,Male,White,6,Not Hispanic or Latino,NA,NA,NA,NA,NA,NA,NA,NA,NA,NA,NA,NA,NA,NA,NA,NA,NA,NA,NA,NA,NA,NA,NA,NA,NA,NA,NA,NA,NA,NA,NA,NA,NA,NA,NA,NA,NA,NA,NA,ε3/ε3,NA,NA
ADNI,ADNI-002-01206,1206,2,ADNI1,72.9,Years,2,>=65,Male,White,6,Not Hispanic or Latino,Y,NA,NA,NA,1/30/2007,NA,NA,NA,NA,14,Married,NA,NA,CN,NA,NA,NA,NA,3.67,5.67,0,0,NA,NA,0,NA,1,29,NA,NA,0,45,14,16,4,36.36,41,5,75,ε3/ε3,0.70743,0.740077
ADNI,ADNI-002-01222,1222,2,ADNI1,73.4,Years,2,>=65,Female,Black or African American,3,Not Hispanic or Latino,Y,NA,NA,NA,2/6/2007,NA,NA,NA,NA,16,Widowed,NA,NA,CN,NA,NA,NA,NA,2.33,4.33,0,0,NA,NA,0,NA,0,30,NA,NA,0,64,18,18,2,18.18,45,6,77,ε2/ε3,4.565255,2.671692
ADNI,ADNI-002-01248,1248,2,ADNI1,79.8,Years,2,>=65,Female,White,6,Not Hispanic or Latino,Y,NA,NA,NA,2/20/2007,NA,NA,NA,NA,12,Married,NA,NA,DEM,NA,NA,NA,NA,17,28,1,5,NA,NA,17,NA,1,23,NA,NA,0,28,0,5,5,100,25,1,140,ε2/ε3,-13.707416,-13.524098
ADNI,ADNI-002-01304,1304,2,ADNI1,74.8,Years,2,>=65,Female,White,6,Not Hispanic or Latino,Y,NA,NA,NA,4/2/2007,NA,NA,NA,NA,8,Married,NA,NA,DEM,NA,NA,NA,NA,16.67,28.67,1,4.5,NA,NA,5,NA,1,25,NA,NA,2,34,0,2,3,75,19,1,177,ε3/ε4,-11.937627,-12.913984
ADNI,ADNI-002-01339,1339,2,ADNI1,79.5,Years,2,>=65,Female,White,6,Not Hispanic or Latino,Y,NA,NA,NA,3/28/2007,NA,NA,NA,NA,13,Married,NA,NA,DEM,NA,NA,NA,NA,17.33,29.33,1,5,NA,NA,13,NA,1,25,NA,NA,4,39,2,4,5,100,23,3,169,ε3/ε3,-10.875172,-12.228877
ADNI,ADNI-002-02149,2149,2,ADNIGO,77.5,Years,2,>=65,Male,White,6,Not Hispanic or Latino,NA,NA,NA,NA,NA,NA,NA,NA,NA,NA,NA,NA,NA,NA,NA,NA,NA,NA,NA,NA,NA,NA,NA,NA,NA,NA,NA,NA,NA,NA,NA,NA,NA,NA,NA,NA,NA,NA,NA,NA,NA,NA
ADNI,ADNI-002-02178,2178,2,ADNIGO,83.4,Years,2,>=65,Male,White,6,Not Hispanic or Latino,NA,NA,NA,NA,NA,NA,NA,NA,NA,NA,NA,NA,NA,NA,NA,NA,NA,NA,NA,NA,NA,NA,NA,NA,NA,NA,NA,NA,NA,NA,NA,NA,NA,NA,NA,NA,NA,NA,NA,NA,NA,NA
ADNI,ADNI-002-02337,2337,2,ADNIGO,81.2,Years,2,>=65,Female,White,6,Not Hispanic or Latino,NA,NA,NA,NA,NA,NA,NA,NA,NA,NA,NA,NA,NA,NA,NA,NA,NA,NA,NA,NA,NA,NA,NA,NA,NA,NA,NA,NA,NA,NA,NA,NA,NA,NA,NA,NA,NA,NA,NA,NA,NA,NA
ADNI,ADNI-002-02374,2374,2,ADNIGO,81.3,Years,2,>=65,Female,White,6,Not Hispanic or Latino,Y,Yes,NA,NA,6/13/2011,8/16/2019,NA,6/30/2019,M,18,Never married,NA,NA,MCI,Non Elevated,Non Elevated,FBP,6MM,9,14,0.5,0.5,NA,NA,0,NA,1,26,NA,NA,0,NA,11,13,4,50,37,3,55,ε3/ε3,NA,-3.480631
ADNI,ADNI-002-04081,4081,2,ADNI2,72.8,Years,2,>=65,Female,White,6,Not Hispanic or Latino,Y,NA,NA,NA,7/27/2011,NA,NA,NA,NA,12,Widowed,NA,NA,CN,Elevated,Elevated,FBP,6MM,5.33,9.33,0,0,NA,NA,0,NA,1,28,NA,0,NA,NA,7,10,3,30,34,6,222,ε3/ε4,NA,-5.273539
ADNI,ADNI-002-04106,4106,2,ADNI2,75.8,Years,2,>=65,Female,Black or African American,3,Not Hispanic or Latino,NA,NA,NA,NA,NA,NA,NA,NA,NA,NA,NA,NA,NA,NA,NA,NA,NA,NA,NA,NA,NA,NA,NA,NA,NA,NA,NA,NA,NA,NA,NA,NA,NA,NA,NA,NA,NA,NA,NA,NA,NA,NA
ADNI,ADNI-002-04118,4118,2,ADNI2,80.8,Years,2,>=65,Female,White,6,Not Hispanic or Latino,NA,NA,NA,NA,NA,NA,NA,NA,NA,NA,NA,NA,NA,NA,NA,NA,NA,NA,NA,NA,NA,NA,NA,NA,NA,NA,NA,NA,NA,NA,NA,NA,NA,NA,NA,NA,NA,NA,NA,NA,NA,NA
ADNI,ADNI-002-04119,4119,2,ADNI2,79.3,Years,2,>=65,Male,White,6,Not Hispanic or Latino,Y,NA,NA,NA,8/18/2011,NA,NA,NA,NA,20,Married,NA,NA,CN,Non Elevated,Non Elevated,FBP,6MM,9.67,11.67,0,0,NA,NA,0,NA,0,30,NA,0,NA,NA,13,13,6,75,33,3,36,ε3/ε3,NA,3.070018
ADNI,ADNI-002-04136,4136,2,ADNI2,66.7,Years,2,>=65,Male,White,6,Not Hispanic or Latino,Y,NA,NA,NA,8/23/2011,NA,NA,NA,NA,20,Married,NA,NA,DEM,Elevated,Elevated,FBP,6MM,23,31,1,5,NA,NA,22,NA,1,24,NA,0,NA,NA,6,7,6,66.67,29,5,300,ε3/ε4,NA,-11.257215
ADNI,ADNI-002-04142,4142,2,ADNI2,89.6,Years,2,>=65,Female,White,6,Not Hispanic or Latino,NA,NA,NA,NA,NA,NA,NA,NA,NA,NA,NA,NA,NA,NA,NA,NA,NA,NA,NA,NA,NA,NA,NA,NA,NA,NA,NA,NA,NA,NA,NA,NA,NA,NA,NA,NA,NA,NA,NA,NA,NA,NA
ADNI,ADNI-002-04152,4152,2,ADNI2,60.7,Years,1,<65,Male,White,6,Not Hispanic or Latino,Y,NA,NA,NA,9/27/2011,NA,NA,NA,NA,18,Married,NA,NA,DEM,Elevated,Elevated,FBP,6MM,37.33,51.33,1,6,NA,NA,16,NA,2,20,NA,0,NA,NA,3,1,1,100,5,-1,NA,ε3/ε3,NA,-18.21509
ADNI,ADNI-002-04207,4207,2,ADNI2,88.9,Years,2,>=65,Female,White,6,Not Hispanic or Latino,NA,NA,NA,NA,NA,NA,NA,NA,NA,NA,NA,NA,NA,NA,NA,NA,NA,NA,NA,NA,NA,NA,NA,NA,NA,NA,NA,NA,NA,NA,NA,NA,NA,NA,NA,NA,NA,NA,NA,NA,NA,NA
ADNI,ADNI-002-04288,4288,2,ADNI2,72.5,Years,2,>=65,Female,White,6,Not Hispanic or Latino,Y,NA,NA,NA,11/8/2011,NA,NA,NA,NA,14,Married,NA,NA,CN,Elevated,Non Elevated,FBP,6MM,3.33,7.33,0,0,NA,NA,0,NA,0,29,NA,0,NA,NA,10,10,6,40,51,10,131,ε3/ε3,NA,-2.798027
ADNI,ADNI-002-04350,4350,2,ADNI2,72.9,Years,2,>=65,Male,White,6,Not Hispanic or Latino,Y,NA,NA,NA,12/15/2011,NA,NA,NA,NA,13,Divorced,NA,NA,CN,Non Elevated,Non Elevated,FBP,6MM,8.33,10.33,0,0,NA,NA,0,NA,2,30,NA,0,NA,NA,10,13,2,15.38,54,7,66,ε3/ε3,NA,0.755236
ADNI,ADNI-002-04354,4354,2,ADNI2,75.7,Years,2,>=65,Male,White,6,Not Hispanic or Latino,Y,NA,NA,NA,1/17/2012,NA,NA,NA,NA,14,Widowed,NA,NA,MCI,Non Elevated,Non Elevated,FBP,6MM,9.67,19.67,0.5,1,NA,NA,2,NA,0,29,NA,0,NA,NA,3,7,8,100,26,5,127,ε3/ε3,NA,-7.32431
ADNI,ADNI-002-04373,4373,2,ADNI2,71.1,Years,2,>=65,Female,White,6,Not Hispanic or Latino,Y,NA,NA,NA,1/18/2012,NA,NA,NA,NA,16,Married,NA,NA,DEM,Elevated,Elevated,FBP,6MM,37.33,52.33,1,5,NA,NA,22,NA,0,20,NA,12,NA,NA,0,0,0,NA,3,0,NA,ε3/ε4,NA,-20.052702
ADNI,ADNI-002-04441,4441,2,ADNI2,68.7,Years,2,>=65,Female,Black or African American,3,Not Hispanic or Latino,Y,NA,NA,NA,1/19/2012,NA,NA,NA,NA,16,Married,NA,NA,CN,Non Elevated,Non Elevated,FBP,6MM,1.67,2.67,0,0,NA,NA,0,NA,0,30,NA,0,NA,NA,16,18,4,33.33,55,3,62,ε3/ε3,NA,3.662632
ADNI,ADNI-002-04524,4524,2,ADNI2,71.9,Years,2,>=65,Male,White,6,Not Hispanic or Latino,Y,NA,NA,NA,6/19/2012,NA,NA,NA,NA,19,Divorced,NA,NA,MCI,Elevated,Elevated,FBP,6MM,10.67,13.67,0.5,0.5,NA,NA,4,NA,1,27,NA,3,NA,NA,8,10,5,83.33,26,3,76,ε4/ε4,NA,-3.230032
ADNI,ADNI-002-04555,4555,2,ADNI2,65.9,Years,2,>=65,Female,White,6,Hispanic or Latino,Y,NA,NA,NA,3/23/2012,11/9/2019,NA,NA,NA,15,Married,NA,NA,CN,Non Elevated,Elevated,FBP,6MM,2.67,4.67,0,0,NA,NA,0,NA,0,28,NA,0,NA,NA,14,14,0,0,36,5,75,ε3/ε4,NA,-0.110601
ADNI,ADNI-002-04644,4644,2,ADNI2,67.7,Years,2,>=65,Female,White,6,Hispanic or Latino,Y,NA,NA,NA,5/14/2012,NA,NA,NA,NA,14,Divorced,NA,NA,CN,Non Elevated,Non Elevated,FBP,6MM,4,4,0,0,NA,NA,0,NA,0,30,NA,0,NA,NA,12,12,5,33.33,62,8,58,ε3/ε4,NA,2.678871
ADNI,ADNI-002-04828,4828,2,ADNI2,76.8,Years,2,>=65,Male,Black or African American,3,Not Hispanic or Latino,NA,NA,NA,NA,NA,NA,NA,NA,NA,NA,NA,NA,NA,NA,NA,NA,NA,NA,NA,NA,NA,NA,NA,NA,NA,NA,NA,NA,NA,NA,NA,NA,NA,NA,NA,NA,NA,NA,NA,NA,NA,NA
ADNI,ADNI-002-04839,4839,2,ADNI2,65.6,Years,2,>=65,Male,White,6,Hispanic or Latino,NA,NA,NA,NA,NA,NA,NA,NA,NA,NA,NA,NA,NA,NA,NA,NA,NA,NA,NA,NA,NA,NA,NA,NA,NA,NA,NA,NA,NA,NA,NA,NA,NA,NA,NA,NA,NA,NA,NA,NA,NA,NA
ADNI,ADNI-002-04840,4840,2,ADNI2,61.7,Years,1,<65,Female,White,6,Hispanic or Latino,NA,NA,NA,NA,NA,7/24/2012,NA,NA,NA,NA,NA,NA,NA,NA,NA,NA,NA,NA,NA,NA,NA,NA,NA,NA,NA,NA,NA,NA,NA,NA,NA,NA,NA,NA,NA,NA,NA,NA,NA,NA,NA,NA
ADNI,ADNI-002-04872,4872,2,ADNI2,68.5,Years,2,>=65,Female,White,6,Hispanic or Latino,Y,NA,NA,NA,8/22/2012,NA,NA,NA,NA,14,Divorced,NA,NA,CN,Non Elevated,Non Elevated,FBP,6MM,5.33,7.33,0,0,NA,NA,0,NA,1,26,NA,0,NA,NA,9,10,3,33.33,38,3,91,ε3/ε4,NA,-3.711347
ADNI,ADNI-002-04892,4892,2,ADNI2,75.2,Years,2,>=65,Female,White,6,Not Hispanic or Latino,Y,Yes,NA,NA,9/11/2012,6/30/2014,M,6/30/2014,M,11,Married,NA,NA,DEM,Elevated,Elevated,FBP,6MM,12.33,20.33,1,5,NA,NA,11,NA,0,24,NA,9,NA,NA,1,2,8,88.89,33,5,208,ε3/ε4,NA,-11.273645
ADNI,ADNI-002-04900,4900,2,ADNI2,59.8,Years,1,<65,Female,White,6,Hispanic or Latino,Y,NA,NA,NA,8/29/2012,NA,NA,NA,NA,18,Married,NA,NA,CN,Non Elevated,Non Elevated,FBP,6MM,4,6,0,0,NA,NA,0,NA,1,30,NA,0,NA,NA,11,14,3,25,48,6,61,ε3/ε3,NA,1.231618
ADNI,ADNI-002-05130,5130,2,ADNI2,66.4,Years,2,>=65,Male,More than one race,7,Not Hispanic or Latino,Y,NA,NA,NA,4/26/2013,NA,NA,NA,NA,17,Married,NA,NA,CN,Non Elevated,Non Elevated,FBP,6MM,2.67,2.67,0,0,NA,NA,0,NA,2,29,NA,0,NA,NA,15,16,8,88.89,37,5,90,ε3/ε4,NA,1.623908
ADNI,ADNI-002-05150,5150,2,ADNI2,66.5,Years,2,>=65,Male,White,6,Not Hispanic or Latino,Y,NA,NA,NA,6/12/2013,NA,NA,NA,NA,20,Divorced,NA,NA,CN,Non Elevated,Non Elevated,FBP,6MM,6.33,9.33,0,0,NA,NA,0,NA,0,29,NA,0,NA,NA,12,17,3,23.08,50,6,56,ε2/ε3,NA,0.353601
ADNI,ADNI-002-05154,5154,2,ADNI2,72.4,Years,2,>=65,Female,White,6,Not Hispanic or Latino,Y,NA,NA,NA,6/10/2013,NA,NA,NA,NA,18,Never married,NA,NA,CN,Non Elevated,Non Elevated,FBP,6MM,3.67,3.67,0,0,NA,NA,0,NA,1,30,NA,0,NA,NA,11,11,2,18.18,42,7,52,ε3/ε4,NA,2.655741
ADNI,ADNI-002-05165,5165,2,ADNI2,78.8,Years,2,>=65,Male,White,6,Not Hispanic or Latino,Y,NA,NA,NA,6/12/2013,NA,NA,NA,NA,12,Widowed,NA,NA,DEM,Elevated,Elevated,FBP,6MM,25,35,1,5.5,NA,NA,26,NA,2,23,NA,22,NA,NA,2,3,4,100,20,1,300,ε3/ε3,NA,-14.811712
ADNI,ADNI-002-05187,5187,2,ADNI2,61.4,Years,1,<65,Female,White,6,Hispanic or Latino,Y,NA,NA,NA,6/21/2013,NA,NA,NA,NA,16,Married,NA,NA,DEM,Elevated,Elevated,FBP,6MM,24.67,35.67,1,6,NA,NA,22,NA,3,24,NA,15,NA,NA,0,3,5,100,22,3,300,ε3/ε4,NA,-14.533358
ADNI,ADNI-002-05209,5209,2,ADNI2,76.1,Years,2,>=65,Male,White,6,Not Hispanic or Latino,Y,NA,NA,NA,7/31/2013,NA,NA,NA,NA,15,Widowed,NA,NA,CN,Non Elevated,Non Elevated,FBP,6MM,12.67,19.67,0,0,NA,NA,0,NA,1,29,NA,0,NA,NA,18,18,8,100,35,3,126,ε3/ε3,NA,-1.973202
ADNI,ADNI-002-06014,6014,2,ADNI3,67.1,Years,2,>=65,Male,White,6,Not Hispanic or Latino,Y,NA,NA,NA,3/14/2018,NA,NA,NA,NA,18,Married,NA,NA,CN,Non Elevated,Non Elevated,FBP,6MM,2,4,0,0,1.5,1,0,74,NA,30,28,0,NA,NA,18,18,1,7.14,62,5,52,ε3/ε3,NA,3.619422
ADNI,ADNI-002-06036,6036,2,ADNI3,61.4,Years,1,<65,Male,Asian,2,Not Hispanic or Latino,NA,NA,NA,NA,NA,12/15/2017,NA,NA,NA,NA,NA,NA,NA,NA,NA,NA,NA,NA,NA,NA,NA,NA,NA,NA,NA,NA,NA,NA,NA,NA,NA,NA,NA,NA,NA,NA,NA,NA,NA,NA,NA,NA
ADNI,ADNI-002-06067,6067,2,ADNI3,63.1,Years,1,<65,Female,White,6,Not Hispanic or Latino,Y,NA,NA,NA,10/13/2017,NA,NA,NA,NA,18,Never married,NA,NA,CN,Non Elevated,Non Elevated,FBP,6MM,4.67,6.67,0,0,1.076923077,1,0,72,NA,29,29,0,NA,NA,17,16,-2,-18.18,58,4,65,ε3/ε3,NA,1.944572
ADNI,ADNI-002-06091,6091,2,ADNI3,76.5,Years,2,>=65,Male,White,6,Not Hispanic or Latino,NA,NA,NA,NA,NA,3/6/2018,NA,NA,NA,NA,NA,NA,NA,NA,NA,NA,NA,NA,NA,NA,NA,NA,NA,NA,NA,NA,NA,NA,NA,NA,NA,NA,NA,NA,NA,NA,NA,NA,NA,NA,NA,NA
ADNI,ADNI-002-06092,6092,2,ADNI3,64.8,Years,1,<65,Female,White,6,Not Hispanic or Latino,NA,NA,NA,NA,NA,2/1/2018,NA,NA,NA,NA,NA,NA,NA,NA,NA,NA,NA,NA,NA,NA,NA,NA,NA,NA,NA,NA,NA,NA,NA,NA,NA,NA,NA,NA,NA,NA,NA,NA,NA,NA,NA,NA
ADNI,ADNI-002-06158,6158,2,ADNI3,65,Years,2,>=65,Male,White,6,Not Hispanic or Latino,Y,NA,NA,NA,2/23/2018,NA,NA,NA,NA,20,Married,NA,NA,CN,Non Elevated,Non Elevated,FBP,6MM,3,7,0,0,1.384615385,1.025641026,0,42,NA,30,24,0,NA,NA,9,12,6,42.86,56,6,132,ε3/ε3,NA,-1.732297
ADNI,ADNI-002-06256,6256,2,ADNI3,66.4,Years,2,>=65,Female,White,6,Not Hispanic or Latino,Y,NA,NA,NA,5/14/2018,NA,NA,NA,NA,16,Married,NA,NA,CN,Non Elevated,Non Elevated,FBP,6MM,1.33,3.33,0,0,1.153846154,1,0,72,NA,30,28,0,NA,NA,20,20,1,8.33,50,4,60,ε3/ε4,NA,3.846952
ADNI,ADNI-002-06257,6257,2,ADNI3,62.1,Years,1,<65,Male,Asian,2,Not Hispanic or Latino,Y,NA,NA,NA,3/29/2018,6/24/2022,NA,NA,NA,20,Divorced,NA,NA,CN,NA,NA,NA,NA,10.67,14.67,0,0,1.487179487,1.102564103,0,74,NA,28,28,17,NA,NA,10,13,1,7.14,53,9,52,NA,NA,-1.410674
ADNI,ADNI-002-06258,6258,2,ADNI3,79.9,Years,2,>=65,Male,White,6,Not Hispanic or Latino,Y,NA,NA,NA,4/6/2018,NA,NA,NA,NA,20,Married,NA,NA,MCI,Elevated,Elevated,FBP,6MM,8.33,14.33,0.5,0.5,1.358974359,2.025641026,0,72,NA,29,24,2,NA,NA,14,16,3,42.86,32,2,77,ε3/ε4,NA,-0.882805
ADNI,ADNI-002-06259,6259,2,ADNI3,71.5,Years,2,>=65,Male,White,6,Hispanic or Latino,Y,NA,NA,NA,4/19/2018,NA,NA,NA,NA,14,Married,NA,NA,CN,Non Elevated,Non Elevated,FBP,6MM,7,9,0,0,1.179487179,1,0,64,NA,29,25,0,NA,NA,10,11,0,0,38,4,132,ε3/ε4,NA,-1.777088
ADNI,ADNI-002-06260,6260,2,ADNI3,69.1,Years,2,>=65,Male,White,6,Not Hispanic or Latino,Y,NA,NA,NA,6/28/2018,NA,NA,NA,NA,20,Married,NA,NA,CN,Elevated,Non Elevated,FBP,6MM,5.33,9.33,0,0,1.794871795,1.641025641,0,66,NA,29,25,1,NA,NA,19,18,1,11.11,36,5,72,ε3/ε3,NA,1.749936
ADNI,ADNI-002-06261,6261,2,ADNI3,76.9,Years,2,>=65,Male,White,6,Not Hispanic or Latino,NA,NA,NA,NA,NA,4/20/2018,NA,NA,NA,NA,NA,NA,NA,NA,NA,NA,NA,NA,NA,NA,NA,NA,NA,NA,NA,NA,NA,NA,NA,NA,NA,NA,NA,NA,NA,NA,NA,NA,NA,NA,NA,NA
ADNI,ADNI-002-06264,6264,2,ADNI3,55.3,Years,1,<65,Male,White,6,Not Hispanic or Latino,Y,NA,NA,NA,9/24/2018,NA,NA,NA,NA,12,Married,NA,NA,DEM,Elevated,Elevated,FBP,6MM,18.33,29.33,0.5,2.5,1.222222222,1.333333333,1,14,NA,23,17,0,NA,NA,3,3,3,100,22,-1,169,ε4/ε4,NA,-13.64407
ADNI,ADNI-002-06268,6268,2,ADNI3,69.6,Years,2,>=65,Male,White,6,Not Hispanic or Latino,Y,NA,NA,NA,8/7/2018,NA,NA,NA,NA,20,Married,NA,NA,MCI,Elevated,Elevated,FBP,6MM,6.67,7.67,0.5,0.5,1.871794872,1.076923077,0,74,NA,29,29,1,NA,NA,9,12,4,30.77,48,9,72,ε4/ε4,NA,-0.07223
ADNI,ADNI-002-06307,6307,2,ADNI3,76.3,Years,2,>=65,Male,White,6,Not Hispanic or Latino,Y,NA,NA,NA,8/13/2018,NA,NA,NA,NA,16,Married,NA,NA,CN,Elevated,Non Elevated,FBP,6MM,13.33,17.33,0,0,1.358974359,1,0,72,NA,27,26,0,NA,NA,10,12,8,80,38,5,46,ε3/ε4,NA,-1.966684
ADNI,ADNI-002-06432,6432,2,ADNI3,67.3,Years,2,>=65,Female,More than one race,7,Not Hispanic or Latino,Y,NA,NA,NA,7/24/2018,NA,NA,NA,NA,18,Married,NA,NA,MCI,Elevated,Elevated,FBP,6MM,7.67,12.67,0.5,0.5,3.307692308,1.076923077,0,64,NA,30,22,0,NA,NA,10,12,3,30,48,5,122,ε4/ε4,NA,-1.774153
ADNI,ADNI-002-06479,6479,2,ADNI3,60.3,Years,1,<65,Female,White,6,Not Hispanic or Latino,Y,NA,NA,NA,10/25/2018,NA,NA,NA,NA,20,Divorced,NA,NA,MCI,Elevated,Elevated,FBP,6MM,9.33,16.33,0.5,2,2.538461538,2.153846154,6,74,NA,30,28,5,NA,NA,7,9,4,57.14,36,0,50,ε4/ε4,NA,-1.51291
ADNI,ADNI-002-06490,6490,2,ADNI3,60.7,Years,1,<65,Female,White,6,Hispanic or Latino,NA,NA,NA,NA,NA,7/22/2019,NA,NA,NA,NA,NA,NA,NA,NA,NA,NA,NA,NA,NA,NA,NA,NA,NA,NA,NA,NA,NA,NA,NA,NA,NA,NA,NA,NA,NA,NA,NA,NA,NA,NA,NA,NA
ADNI,ADNI-002-06606,6606,2,ADNI3,73.6,Years,2,>=65,Female,White,6,Not Hispanic or Latino,Y,NA,NA,NA,1/10/2019,NA,NA,NA,NA,16,Married,NA,NA,MCI,Elevated,Elevated,FBP,6MM,14.67,24.67,0.5,3,1.538461538,2.153846154,5,66,NA,26,21,0,NA,NA,0,2,4,66.67,29,0,52,ε3/ε4,NA,-9.091991
ADNI,ADNI-002-06644,6644,2,ADNI3,86.1,Years,2,>=65,Male,White,6,Not Hispanic or Latino,Y,NA,NA,NA,1/30/2019,NA,NA,NA,NA,20,Widowed,NA,NA,CN,Elevated,Elevated,FBP,6MM,11,17,0,0,1.487179487,1.025641026,0,52,NA,28,25,0,NA,NA,13,12,5,62.5,32,5,94,ε3/ε3,NA,-3.022944
ADNI,ADNI-002-06678,6678,2,ADNI3,76.1,Years,2,>=65,Female,White,6,Not Hispanic or Latino,NA,NA,NA,NA,NA,7/22/2019,NA,NA,NA,NA,NA,NA,NA,NA,NA,NA,NA,NA,NA,NA,NA,NA,NA,NA,NA,NA,NA,NA,NA,NA,NA,NA,NA,NA,NA,NA,NA,NA,NA,NA,NA,NA
ADNI,ADNI-002-06833,6833,2,ADNI3,87.1,Years,2,>=65,Female,Asian,2,Not Hispanic or Latino,Y,NA,NA,NA,12/11/2019,NA,NA,NA,NA,16,Married,NA,NA,DEM,Elevated,Elevated,FBP,6MM,24.67,34.67,0.5,4.5,1.897435897,1.820512821,15,54,NA,23,21,0,NA,NA,0,1,5,100,26,0,156,ε2/ε4,NA,-13.787719
ADNI,ADNI-002-06898,6898,2,ADNI3,62.7,Years,1,<65,Female,White,6,Hispanic or Latino,NA,NA,NA,NA,NA,3/2/2021,NA,NA,NA,NA,NA,NA,NA,NA,NA,NA,NA,NA,NA,NA,NA,NA,NA,NA,NA,NA,NA,NA,NA,NA,NA,NA,NA,NA,NA,NA,NA,NA,NA,NA,NA,NA
ADNI,ADNI-002-06915,6915,2,ADNI3,63.3,Years,1,<65,Female,White,6,Hispanic or Latino,Y,NA,NA,NA,4/27/2021,NA,NA,NA,NA,16,Married,NA,NA,CN,Non Elevated,Non Elevated,FBP,6MM,4,6,0,0.5,1.205128205,NA,NA,72,NA,30,29,NA,NA,NA,17,17,2,14.29,56,7,130,ε4/ε4,NA,1.633605
ADNI,ADNI-002-06924,6924,2,ADNI3,60.2,Years,1,<65,Female,White,6,Hispanic or Latino,Y,NA,NA,NA,4/29/2021,NA,NA,NA,NA,16,Divorced,NA,NA,CN,Elevated,Elevated,FBP,6MM,3,4,0,0,1,1.054054054,0,71,NA,30,30,0,NA,NA,17,21,0,0,59,11,69,ε2/ε3,NA,3.170661
ADNI,ADNI-002-06945,6945,2,ADNI3,57.8,Years,1,<65,Female,White,6,Hispanic or Latino,NA,NA,NA,NA,NA,5/12/2021,NA,NA,NA,NA,NA,NA,NA,NA,NA,NA,NA,NA,NA,NA,NA,NA,NA,NA,NA,NA,NA,NA,NA,NA,NA,NA,NA,NA,NA,NA,NA,NA,NA,NA,NA,NA
ADNI,ADNI-002-06954,6954,2,ADNI3,62.9,Years,1,<65,Female,White,6,Hispanic or Latino,Y,NA,NA,NA,6/22/2021,NA,NA,NA,NA,18,Married,NA,NA,MCI,Elevated,Elevated,FBP,6MM,11,20,0.5,0.5,2.111111111,2.717948718,0,45,NA,28,19,0,NA,NA,3,6,8,100,29,4,168,ε3/ε3,NA,-8.336765
ADNI,ADNI-002-06959,6959,2,ADNI3,64.6,Years,1,<65,Male,White,6,Hispanic or Latino,Y,NA,NA,NA,9/9/2021,NA,NA,NA,NA,12,Married,NA,NA,CN,Non Elevated,Non Elevated,FBP,6MM,8.33,11.33,0,0,1.025641026,1,0,72,NA,28,27,1,NA,NA,7,10,6,100,35,1,99,ε3/ε3,NA,-3.306542
ADNI,ADNI-002-06972,6972,2,ADNI3,66.7,Years,2,>=65,Female,More than one race,7,Hispanic or Latino,NA,NA,NA,NA,NA,6/30/2021,NA,NA,NA,NA,NA,NA,NA,NA,NA,NA,NA,NA,NA,NA,NA,NA,NA,NA,NA,NA,NA,NA,NA,NA,NA,NA,NA,NA,NA,NA,NA,NA,NA,NA,NA,NA
ADNI,ADNI-002-06996,6996,2,ADNI3,64.6,Years,1,<65,Female,Asian,2,Not Hispanic or Latino,Y,NA,NA,NA,9/27/2021,NA,NA,NA,NA,16,Married,NA,NA,CN,Non Elevated,Non Elevated,FBP,6MM,6.33,8.33,0,0,1.743589744,1,0,73,NA,30,28,0,NA,NA,9,10,4,30.77,53,7,59,ε3/ε3,NA,0.739716
ADNI,ADNI-002-07010,7010,2,ADNI3,59.3,Years,1,<65,Male,White,6,Hispanic or Latino,Y,NA,NA,NA,10/28/2021,NA,NA,NA,NA,18,Married,NA,NA,CN,Non Elevated,Non Elevated,FBP,6MM,5,6,0,0.5,1.153846154,1.025641026,0,74,NA,30,29,0,NA,NA,19,9,3,20,56,8,86,ε3/ε4,NA,3.72948
ADNI,ADNI-002-10814,10814,2,ADNI4,77.3,Years,2,>=65,Male,White,6,Not Hispanic or Latino,NA,NA,NA,NA,NA,7/3/2025,NA,NA,NA,NA,NA,NA,NA,NA,NA,NA,NA,NA,NA,NA,NA,NA,NA,NA,NA,NA,NA,NA,NA,NA,NA,NA,NA,NA,NA,NA,NA,NA,NA,NA,NA,NA
ADNI,ADNI-003-00043,43,3,ADNI1,76.2,Years,2,>=65,Male,White,6,Not Hispanic or Latino,Y,NA,NA,NA,2/3/2006,NA,NA,NA,NA,16,Married,NA,NA,CN,NA,NA,NA,NA,7,10,0,0,NA,NA,0,NA,0,29,NA,NA,0,48,15,14,2,15.38,53,6,68,ε2/ε3,1.287671,1.263226
ADNI,ADNI-003-00055,55,3,ADNI1,75.6,Years,2,>=65,Male,White,6,Not Hispanic or Latino,Y,NA,NA,NA,1/13/2006,NA,NA,NA,NA,20,Married,NA,NA,CN,NA,NA,NA,NA,5.33,8.33,0,0,NA,NA,1,NA,1,29,NA,NA,2,39,11,13,1,7.69,56,6,68,ε3/ε3,-0.739213,0.11858
ADNI,ADNI-003-00057,57,3,ADNI1,77.4,Years,2,>=65,Male,White,6,Not Hispanic or Latino,Y,NA,NA,NA,1/6/2006,NA,NA,NA,NA,20,Married,NA,NA,MCI,NA,NA,NA,NA,15.67,19.67,0.5,1.5,NA,NA,7,NA,2,27,NA,NA,4,20,3,5,8,100,29,6,151,ε3/ε4,-7.112086,-6.328798
ADNI,ADNI-003-00063,63,3,ADNI1,77.2,Years,2,>=65,Female,Black or African American,3,Not Hispanic or Latino,NA,NA,NA,NA,NA,NA,NA,NA,NA,NA,NA,NA,NA,NA,NA,NA,NA,NA,NA,NA,NA,NA,NA,NA,NA,NA,NA,NA,NA,NA,NA,NA,NA,NA,NA,NA,NA,NA,NA,NA,NA,NA
ADNI,ADNI-003-00080,80,3,ADNI1,85.1,Years,2,>=65,Male,White,6,Not Hispanic or Latino,Y,NA,NA,NA,1/13/2006,NA,NA,NA,NA,18,Married,NA,NA,MCI,NA,NA,NA,NA,14,21,0.5,1.5,NA,NA,1,NA,5,27,NA,NA,0,48,1,5,3,42.86,23,4,81,ε3/ε4,-7.018568,-7.466364
ADNI,ADNI-003-00087,87,3,ADNI1,75.1,Years,2,>=65,Male,White,6,Not Hispanic or Latino,Y,NA,NA,NA,2/1/2006,NA,NA,NA,NA,14,Married,NA,NA,MCI,NA,NA,NA,NA,18.67,28.67,0.5,1.5,NA,NA,3,NA,1,29,NA,NA,1,38,1,6,6,100,23,3,54,ε3/ε3,-7.856651,-6.344645
ADNI,ADNI-003-00103,103,3,ADNI1,87.4,Years,2,>=65,Male,White,6,Not Hispanic or Latino,Y,Yes,NA,NA,2/2/2006,6/30/2006,M,6/30/2006,M,18,Widowed,NA,NA,MCI,NA,NA,NA,NA,18.67,26.67,0.5,1.5,NA,NA,2,NA,0,24,NA,NA,2,33,3,4,4,100,14,4,166,ε3/ε4,-10.988397,-11.710276
ADNI,ADNI-003-00121,121,3,ADNI1,NA,Years,NA,NA,NA,NA,NA,NA,NA,NA,NA,NA,NA,NA,NA,NA,NA,NA,NA,NA,NA,NA,NA,NA,NA,NA,NA,NA,NA,NA,NA,NA,NA,NA,NA,NA,NA,NA,NA,NA,NA,NA,NA,NA,NA,NA,NA,NA,NA,NA
ADNI,ADNI-003-00142,142,3,ADNI1,79.2,Years,2,>=65,Male,White,6,Not Hispanic or Latino,Y,NA,NA,NA,2/17/2006,NA,NA,NA,NA,14,Widowed,NA,NA,MCI,NA,NA,NA,NA,7.33,17.33,0.5,0.5,NA,NA,0,NA,0,29,NA,NA,2,47,4,6,3,30,39,7,60,ε3/ε4,-4.037031,-3.661207
ADNI,ADNI-003-00155,155,3,ADNI1,81.1,Years,2,>=65,Male,White,6,Not Hispanic or Latino,Y,NA,NA,NA,3/23/2006,NA,NA,NA,NA,16,Married,NA,NA,MCI,NA,NA,NA,NA,11.33,19.33,0.5,1.5,NA,NA,2,NA,3,28,NA,NA,1,44,3,7,4,100,26,0,53,ε2/ε4,-6.507398,-5.538547
ADNI,ADNI-003-00174,174,3,ADNI1,80.1,Years,2,>=65,Male,White,6,Not Hispanic or Latino,NA,NA,NA,NA,NA,NA,NA,NA,NA,NA,NA,NA,NA,NA,NA,NA,NA,NA,NA,NA,NA,NA,NA,NA,NA,NA,NA,NA,NA,NA,NA,NA,NA,NA,NA,NA,NA,NA,NA,ε3/ε3,NA,NA
ADNI,ADNI-003-00277,277,3,ADNI1,85,Years,2,>=65,Female,White,6,Not Hispanic or Latino,NA,NA,NA,NA,NA,NA,NA,NA,NA,NA,NA,NA,NA,NA,NA,NA,NA,NA,NA,NA,NA,NA,NA,NA,NA,NA,NA,NA,NA,NA,NA,NA,NA,NA,NA,NA,NA,NA,NA,ε3/ε4,NA,NA
ADNI,ADNI-003-00286,286,3,ADNI1,65.9,Years,2,>=65,Male,White,6,Not Hispanic or Latino,Y,NA,NA,NA,5/17/2006,NA,NA,NA,NA,16,Married,NA,NA,DEM,NA,NA,NA,NA,22,34,0.5,4,NA,NA,8,NA,3,26,NA,NA,1,6,0,2,5,83.33,22,4,230,ε3/ε3,-13.311965,-12.182816
ADNI,ADNI-003-00335,335,3,ADNI1,83.5,Years,2,>=65,Female,White,6,Not Hispanic or Latino,Y,NA,NA,NA,5/31/2006,NA,NA,NA,NA,14,Widowed,NA,NA,DEM,NA,NA,NA,NA,23,31,1,8,NA,NA,30,NA,3,20,NA,NA,6,35,0,4,5,100,20,2,300,ε2/ε3,-15.053538,-17.416342
ADNI,ADNI-003-00365,365,3,ADNI1,74.9,Years,2,>=65,Male,White,6,Not Hispanic or Latino,NA,NA,NA,NA,NA,NA,NA,NA,NA,NA,NA,NA,NA,NA,NA,NA,NA,NA,NA,NA,NA,NA,NA,NA,NA,NA,NA,NA,NA,NA,NA,NA,NA,NA,NA,NA,NA,NA,NA,ε3/ε4,NA,NA
ADNI,ADNI-003-00369,369,3,ADNI1,76.1,Years,2,>=65,Male,White,6,Not Hispanic or Latino,Y,NA,NA,NA,5/11/2006,NA,NA,NA,NA,18,Married,NA,NA,CN,NA,NA,NA,NA,4,6,0,0,NA,NA,0,NA,0,30,NA,NA,0,61,12,12,2,15.38,52,8,62,ε3/ε3,2.554207,1.478537
ADNI,ADNI-003-00380,380,3,ADNI1,80.2,Years,2,>=65,Male,White,6,Not Hispanic or Latino,NA,NA,NA,NA,NA,NA,NA,NA,NA,NA,NA,NA,NA,NA,NA,NA,NA,NA,NA,NA,NA,NA,NA,NA,NA,NA,NA,NA,NA,NA,NA,NA,NA,NA,NA,NA,NA,NA,NA,NA,NA,NA
ADNI,ADNI-003-00406,406,3,ADNI1,77.8,Years,2,>=65,Male,Black or African American,3,Not Hispanic or Latino,Y,NA,NA,NA,6/26/2006,NA,NA,NA,NA,11,Married,NA,NA,MCI,NA,NA,NA,NA,19.33,27.33,0.5,2.5,NA,NA,14,NA,2,29,NA,NA,0,5,4,7,6,85.71,27,3,300,ε3/ε4,-8.15414,-7.576152
ADNI,ADNI-003-00425,425,3,ADNI1,85.9,Years,2,>=65,Male,White,6,Not Hispanic or Latino,Y,NA,NA,NA,6/19/2006,NA,NA,NA,NA,20,Married,NA,NA,CN,NA,NA,NA,NA,5,9,0,0.5,NA,NA,0,NA,1,29,NA,NA,0,27,9,11,3,37.5,33,5,218,ε3/ε3,-2.487853,-3.286422
ADNI,ADNI-003-00450,450,3,ADNI1,68.5,Years,2,>=65,Male,White,6,Not Hispanic or Latino,Y,NA,NA,NA,6/23/2006,NA,NA,NA,NA,20,Married,NA,NA,MCI,NA,NA,NA,NA,8.33,13.33,0.5,1.5,NA,NA,0,NA,0,30,NA,NA,1,35,3,9,6,75,30,5,70,ε3/ε4,-4.129107,-2.949288
ADNI,ADNI-003-00471,471,3,ADNI1,84.3,Years,2,>=65,Female,White,6,Not Hispanic or Latino,NA,NA,NA,NA,NA,NA,NA,NA,NA,NA,NA,NA,NA,NA,NA,NA,NA,NA,NA,NA,NA,NA,NA,NA,NA,NA,NA,NA,NA,NA,NA,NA,NA,NA,NA,NA,NA,NA,NA,ε3/ε4,NA,NA
ADNI,ADNI-003-00633,633,3,ADNI1,83.3,Years,2,>=65,Male,White,6,Not Hispanic or Latino,Y,NA,NA,NA,7/17/2006,NA,NA,NA,NA,11,Married,NA,NA,DEM,NA,NA,NA,NA,24,38,1,5,NA,NA,12,NA,2,20,NA,NA,0,0,0,1,3,100,13,1,300,ε3/ε4,-19.523912,-18.455791
ADNI,ADNI-003-00682,682,3,ADNI1,68,Years,2,>=65,Male,White,6,Not Hispanic or Latino,Y,NA,NA,NA,7/25/2006,NA,NA,NA,NA,16,Married,NA,NA,DEM,NA,NA,NA,NA,20.33,32.33,1,5,NA,NA,10,NA,0,26,NA,NA,2,22,0,5,3,100,16,0,300,ε3/ε4,-12.263267,-13.351728
ADNI,ADNI-003-02235,2235,3,ADNIGO,62.2,Years,1,<65,Female,White,6,Not Hispanic or Latino,NA,NA,NA,NA,NA,NA,NA,NA,NA,NA,NA,NA,NA,NA,NA,NA,NA,NA,NA,NA,NA,NA,NA,NA,NA,NA,NA,NA,NA,NA,NA,NA,NA,NA,NA,NA,NA,NA,NA,NA,NA,NA
ADNI,ADNI-003-02260,2260,3,ADNIGO,NA,Years,NA,NA,NA,NA,NA,NA,NA,NA,NA,NA,NA,NA,NA,NA,NA,NA,NA,NA,NA,NA,NA,NA,NA,NA,NA,NA,NA,NA,NA,NA,NA,NA,NA,NA,NA,NA,NA,NA,NA,NA,NA,NA,NA,NA,NA,NA,NA,NA
ADNI,ADNI-003-02287,2287,3,ADNIGO,60.6,Years,1,<65,Female,White,6,Not Hispanic or Latino,NA,NA,NA,NA,NA,NA,NA,NA,NA,NA,NA,NA,NA,NA,NA,NA,NA,NA,NA,NA,NA,NA,NA,NA,NA,NA,NA,NA,NA,NA,NA,NA,NA,NA,NA,NA,NA,NA,NA,NA,NA,NA
ADNI,ADNI-003-02297,2297,3,ADNIGO,79.9,Years,2,>=65,Male,White,6,Not Hispanic or Latino,NA,NA,NA,NA,NA,NA,NA,NA,NA,NA,NA,NA,NA,NA,NA,NA,NA,NA,NA,NA,NA,NA,NA,NA,NA,NA,NA,NA,NA,NA,NA,NA,NA,NA,NA,NA,NA,NA,NA,NA,NA,NA
ADNI,ADNI-003-02318,2318,3,ADNIGO,61,Years,1,<65,Male,White,6,Not Hispanic or Latino,NA,NA,NA,NA,NA,NA,NA,NA,NA,NA,NA,NA,NA,NA,NA,NA,NA,NA,NA,NA,NA,NA,NA,NA,NA,NA,NA,NA,NA,NA,NA,NA,NA,NA,NA,NA,NA,NA,NA,NA,NA,NA
ADNI,ADNI-003-02321,2321,3,ADNIGO,NA,Years,NA,NA,NA,NA,NA,NA,NA,NA,NA,NA,NA,NA,NA,NA,NA,NA,NA,NA,NA,NA,NA,NA,NA,NA,NA,NA,NA,NA,NA,NA,NA,NA,NA,NA,NA,NA,NA,NA,NA,NA,NA,NA,NA,NA,NA,NA,NA,NA
ADNI,ADNI-003-02352,2352,3,ADNIGO,64.6,Years,1,<65,Male,White,6,Not Hispanic or Latino,NA,NA,NA,NA,NA,NA,NA,NA,NA,NA,NA,NA,NA,NA,NA,NA,NA,NA,NA,NA,NA,NA,NA,NA,NA,NA,NA,NA,NA,NA,NA,NA,NA,NA,NA,NA,NA,NA,NA,NA,NA,NA
ADNI,ADNI-003-02385,2385,3,ADNIGO,73,Years,2,>=65,Male,White,6,Not Hispanic or Latino,NA,NA,NA,NA,NA,NA,NA,NA,NA,NA,NA,NA,NA,NA,NA,NA,NA,NA,NA,NA,NA,NA,NA,NA,NA,NA,NA,NA,NA,NA,NA,NA,NA,NA,NA,NA,NA,NA,NA,NA,NA,NA
ADNI,ADNI-003-02390,2390,3,ADNIGO,87.8,Years,2,>=65,Female,White,6,Not Hispanic or Latino,Y,NA,NA,NA,7/8/2011,NA,NA,NA,NA,12,Widowed,NA,NA,MCI,Elevated,Elevated,FBP,6MM,4.67,9.67,0.5,0.5,NA,NA,0,NA,0,25,NA,NA,0,NA,9,10,4,30.77,44,9,124,ε3/ε3,NA,-6.353259
ADNI,ADNI-003-04168,4168,3,ADNI2,82.2,Years,2,>=65,Male,White,6,Not Hispanic or Latino,Y,NA,NA,NA,9/8/2011,NA,NA,NA,NA,17,Married,NA,NA,MCI,Non Elevated,Non Elevated,FBP,6MM,7.67,10.67,0.5,0.5,NA,NA,1,NA,0,29,NA,0,NA,NA,9,8,5,45.45,30,9,120,ε3/ε4,NA,-2.351059
ADNI,ADNI-003-04185,4185,3,ADNI2,80.4,Years,2,>=65,Male,White,6,Not Hispanic or Latino,Y,NA,NA,NA,9/29/2011,NA,NA,NA,NA,20,Married,NA,NA,MCI,Non Elevated,Non Elevated,FBP,6MM,9.67,11.67,0.5,0.5,NA,NA,4,NA,0,28,NA,4,NA,NA,11,10,3,33.33,29,5,97,ε3/ε3,NA,-1.592622
ADNI,ADNI-003-04344,4344,3,ADNI2,68.1,Years,2,>=65,Female,White,6,Not Hispanic or Latino,NA,NA,NA,NA,NA,NA,NA,NA,NA,NA,NA,NA,NA,NA,NA,NA,NA,NA,NA,NA,NA,NA,NA,NA,NA,NA,NA,NA,NA,NA,NA,NA,NA,NA,NA,NA,NA,NA,NA,NA,NA,NA
ADNI,ADNI-003-04452,4452,3,ADNI2,NA,Years,NA,NA,NA,NA,NA,NA,NA,NA,NA,NA,NA,NA,NA,NA,NA,NA,NA,NA,NA,NA,NA,NA,NA,NA,NA,NA,NA,NA,NA,NA,NA,NA,NA,NA,NA,NA,NA,NA,NA,NA,NA,NA,NA,NA,NA,NA,NA,NA
ADNI,ADNI-003-04617,4617,3,ADNI2,78.8,Years,2,>=65,Male,White,6,Not Hispanic or Latino,NA,NA,NA,NA,NA,NA,NA,NA,NA,NA,NA,NA,NA,NA,NA,NA,NA,NA,NA,NA,NA,NA,NA,NA,NA,NA,NA,NA,NA,NA,NA,NA,NA,NA,NA,NA,NA,NA,NA,NA,NA,NA
ADNI,ADNI-003-04707,4707,3,ADNI2,68,Years,2,>=65,Male,White,6,Not Hispanic or Latino,Y,NA,NA,NA,6/5/2012,NA,NA,NA,NA,14,Married,NA,NA,DEM,Elevated,Elevated,FBP,6MM,20.33,31.33,1,4.5,NA,NA,11,NA,1,21,NA,9,NA,NA,2,4,3,60,13,5,300,ε3/ε4,NA,-17.032791
ADNI,ADNI-003-04751,4751,3,ADNI2,76.3,Years,2,>=65,Female,White,6,Not Hispanic or Latino,NA,NA,NA,NA,NA,NA,NA,NA,NA,NA,NA,NA,NA,NA,NA,NA,NA,NA,NA,NA,NA,NA,NA,NA,NA,NA,NA,NA,NA,NA,NA,NA,NA,NA,NA,NA,NA,NA,NA,NA,NA,NA
ADNI,ADNI-003-04778,4778,3,ADNI2,81.3,Years,2,>=65,Female,White,6,Not Hispanic or Latino,NA,NA,NA,NA,NA,NA,NA,NA,NA,NA,NA,NA,NA,NA,NA,NA,NA,NA,NA,NA,NA,NA,NA,NA,NA,NA,NA,NA,NA,NA,NA,NA,NA,NA,NA,NA,NA,NA,NA,NA,NA,NA
ADNI,ADNI-003-04910,4910,3,ADNI2,81.5,Years,2,>=65,Female,White,6,Not Hispanic or Latino,Y,Yes,NA,NA,10/9/2012,6/30/2015,M,6/30/2015,M,15,Married,NA,NA,DEM,Elevated,Elevated,FBP,6MM,26,40,1,7,NA,NA,25,NA,0,25,NA,9,NA,NA,2,2,5,100,12,4,300,ε3/ε3,NA,-13.630082
ADNI,ADNI-003-04979,4979,3,ADNI2,76.6,Years,2,>=65,Female,White,6,Not Hispanic or Latino,NA,NA,NA,NA,NA,NA,NA,NA,NA,NA,NA,NA,NA,NA,NA,NA,NA,NA,NA,NA,NA,NA,NA,NA,NA,NA,NA,NA,NA,NA,NA,NA,NA,NA,NA,NA,NA,NA,NA,NA,NA,NA
ADNI,ADNI-003-05038,5038,3,ADNI2,81.5,Years,2,>=65,Male,White,6,Not Hispanic or Latino,Y,NA,NA,NA,12/27/2012,NA,NA,NA,NA,18,Married,NA,NA,DEM,Non Elevated,Non Elevated,FBP,6MM,13.33,24.33,1,5,NA,NA,11,NA,0,25,NA,23,NA,NA,0,6,5,100,22,1,222,ε3/ε3,NA,-13.466773
ADNI,ADNI-003-05068,5068,3,ADNI2,NA,Years,NA,NA,NA,NA,NA,NA,NA,NA,NA,NA,NA,NA,NA,NA,NA,NA,NA,NA,NA,NA,NA,NA,NA,NA,NA,NA,NA,NA,NA,NA,NA,NA,NA,NA,NA,NA,NA,NA,NA,NA,NA,NA,NA,NA,NA,NA,NA,NA
ADNI,ADNI-003-05119,5119,3,ADNI2,77.1,Years,2,>=65,Female,White,6,Not Hispanic or Latino,Y,NA,NA,NA,4/17/2013,NA,NA,NA,NA,12,Married,NA,NA,DEM,Elevated,Elevated,FBP,6MM,27,36,1,8,NA,NA,24,NA,0,23,NA,12,NA,NA,3,4,6,85.71,25,3,300,ε3/ε3,NA,-13.486101
ADNI,ADNI-003-06084,6084,3,ADNI3,78.4,Years,2,>=65,Male,White,6,Not Hispanic or Latino,Y,NA,NA,NA,11/13/2017,1/18/2023,NA,NA,NA,20,Divorced,NA,NA,CN,Elevated,Elevated,FBP,6MM,7,11,0,0,1.666666667,1,0,74,NA,30,27,0,NA,NA,15,16,7,77.78,34,4,56,ε3/ε3,NA,2.062763
ADNI,ADNI-003-06093,6093,3,ADNI3,61.7,Years,1,<65,Female,White,6,Hispanic or Latino,NA,NA,NA,NA,NA,5/8/2018,NA,NA,NA,NA,NA,NA,NA,NA,NA,NA,NA,NA,NA,NA,NA,NA,NA,NA,NA,NA,NA,NA,NA,NA,NA,NA,NA,NA,NA,NA,NA,NA,NA,NA,NA,NA
ADNI,ADNI-003-06393,6393,3,ADNI3,62.3,Years,1,<65,Female,White,6,Hispanic or Latino,Y,NA,NA,NA,6/14/2018,NA,NA,NA,NA,20,Married,NA,NA,CN,Elevated,Elevated,FBP,6MM,1.33,1.33,0,0,1.256410256,1,0,72,NA,30,30,0,NA,NA,13,13,0,0,70,5,42,ε4/ε4,NA,3.740884
ADNI,ADNI-003-06427,6427,3,ADNI3,65.3,Years,2,>=65,Female,White,6,Not Hispanic or Latino,Y,NA,NA,NA,7/24/2018,NA,NA,NA,NA,16,Married,NA,NA,MCI,Non Elevated,Non Elevated,FBP,6MM,16,23,0.5,1.5,2.972972973,1.514285714,4,68,NA,27,23,0,NA,NA,10,11,5,55.56,31,5,160,ε3/ε3,NA,-5.5062
ADNI,ADNI-003-06997,6997,3,ADNI3,NA,Years,NA,NA,NA,NA,NA,NA,NA,NA,NA,NA,NA,NA,NA,NA,NA,NA,NA,NA,NA,NA,NA,NA,NA,NA,NA,NA,NA,NA,NA,NA,NA,NA,NA,NA,NA,NA,NA,NA,NA,NA,NA,NA,NA,NA,NA,NA,NA,NA
ADNI,ADNI-003-07101,7101,3,ADNI3,NA,Years,NA,NA,NA,NA,NA,NA,NA,NA,NA,NA,NA,NA,NA,NA,NA,NA,NA,NA,NA,NA,NA,NA,NA,NA,NA,NA,NA,NA,NA,NA,NA,NA,NA,NA,NA,NA,NA,NA,NA,NA,NA,NA,NA,NA,NA,NA,NA,NA
ADNI,ADNI-003-10042,10042,3,ADNI4,72.1,Years,2,>=65,Female,White,6,Hispanic or Latino,Y,NA,NA,NA,3/21/2024,NA,NA,NA,NA,16,Divorced,NA,NA,CN,Non Elevated,Non Elevated,FBP,6MM,3.33,4.33,0,0,NA,NA,0,NA,NA,30,28,2,NA,NA,12,14,4,26.67,67,5,57,ε3/ε3,NA,2.201072
ADNI,ADNI-003-10073,10073,3,ADNI4,56.9,Years,1,<65,Female,White,6,Hispanic or Latino,Y,NA,NA,NA,5/28/2024,NA,NA,NA,NA,18,Divorced,NA,NA,CN,Non Elevated,Non Elevated,FBP,6MM,0.33,1.33,0,0,NA,NA,NA,NA,NA,25,30,0,NA,NA,17,14,2,13.33,71,3,95,ε3/ε3,NA,-1.857389
ADNI,ADNI-003-10082,10082,3,ADNI4,75.2,Years,2,>=65,Female,White,6,Hispanic or Latino,Y,NA,NA,NA,5/29/2024,NA,NA,NA,NA,20,Married,NA,NA,CN,Non Elevated,Non Elevated,FBP,6MM,0,0,0,0,NA,NA,0,NA,NA,29,30,0,NA,NA,10,10,3,20,65,8,43,ε3/ε3,NA,1.975338
ADNI,ADNI-003-10158,10158,3,ADNI4,65.1,Years,2,>=65,Male,Black or African American,3,Not Hispanic or Latino,Y,NA,NA,NA,8/15/2024,NA,NA,NA,NA,18,Married,NA,NA,CN,Elevated,Non Elevated,FBP,6MM,3.33,7.33,0,0,NA,NA,0,NA,NA,30,30,0,NA,NA,9,9,4,33.33,45,7,109,ε4/ε4,NA,-0.227174
ADNI,ADNI-003-10259,10259,3,ADNI4,NA,Years,NA,NA,NA,NA,NA,NA,NA,NA,NA,NA,NA,10/21/2024,NA,NA,NA,NA,NA,NA,NA,NA,NA,NA,NA,NA,NA,NA,NA,NA,NA,NA,NA,NA,NA,NA,NA,NA,NA,NA,NA,NA,NA,NA,NA,NA,NA,NA,NA,NA
ADNI,ADNI-003-10426,10426,3,ADNI4,84,Years,2,>=65,Male,White,6,Hispanic or Latino,Y,NA,NA,NA,3/13/2025,NA,NA,NA,NA,16,Married,NA,NA,MCI,NA,NA,NA,NA,NA,NA,0.5,3,NA,NA,10,NA,NA,24,22,81,NA,NA,4,8,5,83.33,21,5,271,ε3/ε3,NA,-13.251929
ADNI,ADNI-003-10593,10593,3,ADNI4,68.1,Years,2,>=65,Female,White,6,Hispanic or Latino,Y,NA,NA,NA,4/24/2025,NA,NA,NA,NA,16,Married,NA,NA,CN,NA,NA,NA,NA,10,13,0,0,NA,NA,0,NA,NA,29,28,0,NA,NA,11,11,6,46.15,45,10,65,NA,NA,-0.292122
ADNI,ADNI-003-10622,10622,3,ADNI4,56.6,Years,1,<65,Female,White,6,Hispanic or Latino,Y,NA,NA,NA,4/30/2025,NA,NA,NA,NA,20,Divorced,NA,NA,CN,NA,NA,NA,NA,1.33,2.33,0,0,NA,NA,0,NA,NA,30,26,0,NA,NA,13,17,1,6.67,64,8,48,NA,NA,2.900799
ADNI,ADNI-004-00006,6,4,ADNI1,80.4,Years,2,>=65,Female,White,6,Not Hispanic or Latino,Y,NA,NA,NA,11/29/2005,NA,NA,NA,NA,13,Married,NA,NA,MCI,NA,NA,NA,NA,18.67,25.67,0.5,0.5,NA,NA,0,NA,0,25,NA,NA,0,34,3,6,5,83.33,30,1,168,ε3/ε3,-9.519969,-10.369072
ADNI,ADNI-004-00015,15,4,ADNI1,80.9,Years,2,>=65,Male,White,6,Not Hispanic or Latino,Y,Yes,NA,NA,10/18/2005,6/30/2013,M,6/30/2013,M,18,Married,NA,NA,CN,NA,NA,NA,NA,7,9,0,0,NA,NA,0,NA,0,29,NA,NA,2,63,19,19,3,25,50,5,49,ε3/ε4,3.902713,3.197817
ADNI,ADNI-004-00017,17,4,ADNI1,69.2,Years,2,>=65,Female,White,6,Not Hispanic or Latino,NA,NA,NA,NA,NA,NA,NA,NA,NA,NA,NA,NA,NA,NA,NA,NA,NA,NA,NA,NA,NA,NA,NA,NA,NA,NA,NA,NA,NA,NA,NA,NA,NA,NA,NA,NA,NA,NA,NA,ε3/ε3,NA,NA
ADNI,ADNI-004-00025,25,4,ADNI1,83.8,Years,2,>=65,Male,White,6,Not Hispanic or Latino,NA,NA,NA,NA,NA,NA,NA,NA,NA,NA,NA,NA,NA,NA,NA,NA,NA,NA,NA,NA,NA,NA,NA,NA,NA,NA,NA,NA,NA,NA,NA,NA,NA,NA,NA,NA,NA,NA,NA,ε3/ε3,NA,NA
ADNI,ADNI-004-00034,34,4,ADNI1,84.9,Years,2,>=65,Male,White,6,Not Hispanic or Latino,NA,NA,NA,NA,NA,NA,NA,NA,NA,NA,NA,NA,NA,NA,NA,NA,NA,NA,NA,NA,NA,NA,NA,NA,NA,NA,NA,NA,NA,NA,NA,NA,NA,NA,NA,NA,NA,NA,NA,ε3/ε3,NA,NA
ADNI,ADNI-004-00035,35,4,ADNI1,76.9,Years,2,>=65,Male,White,6,Not Hispanic or Latino,Y,NA,NA,NA,11/8/2005,NA,NA,NA,NA,18,Married,NA,NA,CN,NA,NA,NA,NA,6,9,0,0,NA,NA,0,NA,0,30,NA,NA,0,45,12,14,2,22.22,42,3,60,ε3/ε3,0.985784,1.55766
ADNI,ADNI-004-00036,36,4,ADNI1,81.3,Years,2,>=65,Male,White,6,Not Hispanic or Latino,NA,NA,NA,NA,NA,NA,NA,NA,NA,NA,NA,NA,NA,NA,NA,NA,NA,NA,NA,NA,NA,NA,NA,NA,NA,NA,NA,NA,NA,NA,NA,NA,NA,NA,NA,NA,NA,NA,NA,ε3/ε3,NA,NA
ADNI,ADNI-004-00047,47,4,ADNI1,84.8,Years,2,>=65,Male,White,6,Not Hispanic or Latino,Y,NA,NA,NA,12/15/2005,NA,NA,NA,NA,20,Married,NA,NA,CN,NA,NA,NA,NA,8,11,0,0,NA,NA,0,NA,0,30,NA,NA,0,36,13,19,1,9.09,41,9,121,ε2/ε3,0.389708,0.143802
ADNI,ADNI-004-00069,69,4,ADNI1,72.9,Years,2,>=65,Male,White,6,Not Hispanic or Latino,Y,NA,NA,NA,1/17/2006,NA,NA,NA,NA,16,Never married,NA,NA,CN,NA,NA,NA,NA,8.33,15.33,0,0,NA,NA,0,NA,0,28,NA,NA,1,37,13,13,4,57.14,33,1,80,ε3/ε3,-3.292518,-2.63193
ADNI,ADNI-004-00190,190,4,ADNI1,78.8,Years,2,>=65,Male,White,6,Not Hispanic or Latino,Y,NA,NA,NA,5/16/2006,NA,NA,NA,NA,18,Married,NA,NA,DEM,NA,NA,NA,NA,14.67,24.67,0.5,2,NA,NA,10,NA,1,27,NA,NA,1,39,3,6,3,60,22,2,83,ε3/ε4,-8.367932,-7.992592
ADNI,ADNI-004-00220,220,4,ADNI1,72.2,Years,2,>=65,Male,White,6,Not Hispanic or Latino,NA,NA,NA,NA,NA,NA,NA,NA,NA,NA,NA,NA,NA,NA,NA,NA,NA,NA,NA,NA,NA,NA,NA,NA,NA,NA,NA,NA,NA,NA,NA,NA,NA,NA,NA,NA,NA,NA,NA,ε3/ε4,NA,NA
ADNI,ADNI-004-00296,296,4,ADNI1,79.2,Years,2,>=65,Male,White,6,Not Hispanic or Latino,Y,Yes,NA,NA,4/25/2006,2/11/2019,NA,6/30/2019,M,10,Married,NA,NA,MCI,NA,NA,NA,NA,15,24,0.5,1.5,NA,NA,0,NA,1,26,NA,NA,2,26,2,5,2,25,23,7,277,ε3/ε3,-9.21994,-10.505551
ADNI,ADNI-004-00743,743,4,ADNI1,85.7,Years,2,>=65,Male,White,6,Not Hispanic or Latino,Y,NA,NA,NA,8/22/2006,NA,NA,NA,NA,14,Married,NA,NA,DEM,NA,NA,NA,NA,35.33,50.33,1,7,NA,NA,24,NA,1,22,NA,NA,3,0,0,0,3,100,7,2,194,ε3/ε3,-17.822557,-15.689733
ADNI,ADNI-004-00747,747,4,ADNI1,72.6,Years,2,>=65,Male,White,6,Not Hispanic or Latino,Y,NA,NA,NA,9/7/2006,NA,NA,NA,NA,18,Married,NA,NA,DEM,NA,NA,NA,NA,19.33,31.33,0.5,3,NA,NA,11,NA,2,25,NA,NA,8,23,8,10,3,60,24,2,300,ε3/ε4,-10.726626,-11.913113
ADNI,ADNI-004-00764,764,4,ADNI1,82.1,Years,2,>=65,Male,White,6,Not Hispanic or Latino,NA,NA,NA,NA,NA,NA,NA,NA,NA,NA,NA,NA,NA,NA,NA,NA,NA,NA,NA,NA,NA,NA,NA,NA,NA,NA,NA,NA,NA,NA,NA,NA,NA,NA,NA,NA,NA,NA,NA,NA,NA,NA
ADNI,ADNI-004-00780,780,4,ADNI1,82.1,Years,2,>=65,Male,White,6,Not Hispanic or Latino,NA,NA,NA,NA,NA,NA,NA,NA,NA,NA,NA,NA,NA,NA,NA,NA,NA,NA,NA,NA,NA,NA,NA,NA,NA,NA,NA,NA,NA,NA,NA,NA,NA,NA,NA,NA,NA,NA,NA,ε3/ε3,NA,NA
ADNI,ADNI-004-00781,781,4,ADNI1,77.7,Years,2,>=65,Female,White,6,Not Hispanic or Latino,NA,NA,NA,NA,NA,NA,NA,NA,NA,NA,NA,NA,NA,NA,NA,NA,NA,NA,NA,NA,NA,NA,NA,NA,NA,NA,NA,NA,NA,NA,NA,NA,NA,NA,NA,NA,NA,NA,NA,ε3/ε4,NA,NA
ADNI,ADNI-004-00799,799,4,ADNI1,74.4,Years,2,>=65,Female,White,6,Not Hispanic or Latino,NA,NA,NA,NA,NA,NA,NA,NA,NA,NA,NA,NA,NA,NA,NA,NA,NA,NA,NA,NA,NA,NA,NA,NA,NA,NA,NA,NA,NA,NA,NA,NA,NA,NA,NA,NA,NA,NA,NA,ε2/ε3,NA,NA
ADNI,ADNI-004-00859,859,4,ADNI1,NA,Years,NA,NA,NA,NA,NA,NA,NA,NA,NA,NA,NA,NA,NA,NA,NA,NA,NA,NA,NA,NA,NA,NA,NA,NA,NA,NA,NA,NA,NA,NA,NA,NA,NA,NA,NA,NA,NA,NA,NA,NA,NA,NA,NA,NA,NA,NA,NA,NA
ADNI,ADNI-004-00892,892,4,ADNI1,72.8,Years,2,>=65,Female,White,6,Not Hispanic or Latino,Y,Yes,NA,NA,10/24/2006,6/30/2013,M,6/30/2013,M,12,Divorced,NA,NA,MCI,NA,NA,NA,NA,7.33,10.33,0.5,2,NA,NA,1,NA,3,28,NA,NA,0,29,3,4,8,61.54,44,9,112,ε3/ε4,-5.379171,-4.75094
ADNI,ADNI-004-00893,893,4,ADNI1,85.9,Years,2,>=65,Female,White,6,Not Hispanic or Latino,NA,NA,NA,NA,NA,NA,NA,NA,NA,NA,NA,NA,NA,NA,NA,NA,NA,NA,NA,NA,NA,NA,NA,NA,NA,NA,NA,NA,NA,NA,NA,NA,NA,NA,NA,NA,NA,NA,NA,ε3/ε4,NA,NA
ADNI,ADNI-004-00910,910,4,ADNI1,60.5,Years,1,<65,Male,White,6,Not Hispanic or Latino,NA,NA,NA,NA,NA,NA,NA,NA,NA,NA,NA,NA,NA,NA,NA,NA,NA,NA,NA,NA,NA,NA,NA,NA,NA,NA,NA,NA,NA,NA,NA,NA,NA,NA,NA,NA,NA,NA,NA,ε3/ε4,NA,NA
ADNI,ADNI-004-00930,930,4,ADNI1,75,Years,2,>=65,Male,White,6,Not Hispanic or Latino,Y,NA,NA,NA,10/23/2006,NA,NA,NA,NA,16,Married,NA,NA,MCI,NA,NA,NA,NA,17.33,25.33,0.5,3,NA,NA,1,NA,0,25,NA,NA,0,45,2,2,3,75,18,2,93,ε3/ε4,-9.247564,-9.736248
ADNI,ADNI-004-00965,965,4,ADNI1,71.2,Years,2,>=65,Male,White,6,Not Hispanic or Latino,NA,NA,NA,NA,NA,NA,NA,NA,NA,NA,NA,NA,NA,NA,NA,NA,NA,NA,NA,NA,NA,NA,NA,NA,NA,NA,NA,NA,NA,NA,NA,NA,NA,NA,NA,NA,NA,NA,NA,ε3/ε3,NA,NA
ADNI,ADNI-004-00995,995,4,ADNI1,78.5,Years,2,>=65,Female,White,6,Not Hispanic or Latino,Y,NA,NA,NA,11/13/2006,NA,NA,NA,NA,12,Married,NA,NA,DEM,NA,NA,NA,NA,17,27,0.5,2,NA,NA,3,NA,3,26,NA,NA,3,29,0,2,5,100,25,1,300,ε3/ε4,-11.057358,-12.832003
ADNI,ADNI-004-01020,1020,4,ADNI1,84.6,Years,2,>=65,Female,White,6,Not Hispanic or Latino,NA,NA,NA,NA,NA,NA,NA,NA,NA,NA,NA,NA,NA,NA,NA,NA,NA,NA,NA,NA,NA,NA,NA,NA,NA,NA,NA,NA,NA,NA,NA,NA,NA,NA,NA,NA,NA,NA,NA,NA,NA,NA
ADNI,ADNI-004-01062,1062,4,ADNI1,82,Years,2,>=65,Male,White,6,Not Hispanic or Latino,Y,NA,NA,NA,11/28/2006,NA,NA,NA,NA,12,Married,NA,NA,DEM,NA,NA,NA,NA,10.33,18.33,0.5,1,NA,NA,1,NA,1,24,NA,NA,0,27,0,1,4,80,27,2,300,ε3/ε4,-11.915316,-13.493909
ADNI,ADNI-004-01067,1067,4,ADNI1,73.3,Years,2,>=65,Male,White,6,Not Hispanic or Latino,NA,NA,NA,NA,NA,NA,NA,NA,NA,NA,NA,NA,NA,NA,NA,NA,NA,NA,NA,NA,NA,NA,NA,NA,NA,NA,NA,NA,NA,NA,NA,NA,NA,NA,NA,NA,NA,NA,NA,ε3/ε3,NA,NA
ADNI,ADNI-004-01085,1085,4,ADNI1,77.6,Years,2,>=65,Female,White,6,Not Hispanic or Latino,NA,NA,NA,NA,NA,NA,NA,NA,NA,NA,NA,NA,NA,NA,NA,NA,NA,NA,NA,NA,NA,NA,NA,NA,NA,NA,NA,NA,NA,NA,NA,NA,NA,NA,NA,NA,NA,NA,NA,ε3/ε3,NA,NA
ADNI,ADNI-004-01113,1113,4,ADNI1,79.2,Years,2,>=65,Female,White,6,Not Hispanic or Latino,Y,NA,NA,NA,1/18/2007,NA,NA,NA,NA,12,Divorced,NA,NA,DEM,NA,NA,NA,NA,14,26,1,8,NA,NA,23,NA,0,22,NA,NA,7,18,0,4,6,100,27,3,200,ε3/ε3,-15.538357,-15.244335
ADNI,ADNI-004-01147,1147,4,ADNI1,79.5,Years,2,>=65,Male,Black or African American,3,Not Hispanic or Latino,NA,NA,NA,NA,NA,NA,NA,NA,NA,NA,NA,NA,NA,NA,NA,NA,NA,NA,NA,NA,NA,NA,NA,NA,NA,NA,NA,NA,NA,NA,NA,NA,NA,NA,NA,NA,NA,NA,NA,ε3/ε3,NA,NA
ADNI,ADNI-004-01154,1154,4,ADNI1,76.6,Years,2,>=65,Male,White,6,Not Hispanic or Latino,Y,NA,NA,NA,1/30/2007,NA,NA,NA,NA,18,Married,NA,NA,DEM,NA,NA,NA,NA,14.67,23.67,0.5,1.5,NA,NA,7,NA,0,25,NA,NA,4,56,0,5,6,100,29,0,137,ε3/ε4,-9.261321,-11.769997
ADNI,ADNI-004-01180,1180,4,ADNI1,71.9,Years,2,>=65,Male,White,6,Not Hispanic or Latino,NA,NA,NA,NA,NA,NA,NA,NA,NA,NA,NA,NA,NA,NA,NA,NA,NA,NA,NA,NA,NA,NA,NA,NA,NA,NA,NA,NA,NA,NA,NA,NA,NA,NA,NA,NA,NA,NA,NA,ε3/ε4,NA,NA
ADNI,ADNI-004-01226,1226,4,ADNI1,82.6,Years,2,>=65,Male,White,6,Not Hispanic or Latino,Y,NA,NA,NA,2/15/2007,NA,NA,NA,NA,16,Never married,NA,NA,DEM,NA,NA,NA,NA,7.33,13.33,0.5,1.5,NA,NA,4,NA,3,28,NA,NA,0,29,5,6,4,57.14,25,4,100,ε3/ε3,-5.326573,-4.422994
ADNI,ADNI-004-01233,1233,4,ADNI1,85.5,Years,2,>=65,Female,Black or African American,3,Not Hispanic or Latino,NA,NA,NA,NA,NA,NA,NA,NA,NA,NA,NA,NA,NA,NA,NA,NA,NA,NA,NA,NA,NA,NA,NA,NA,NA,NA,NA,NA,NA,NA,NA,NA,NA,NA,NA,NA,NA,NA,NA,ε3/ε3,NA,NA
ADNI,ADNI-004-01235,1235,4,ADNI1,78.4,Years,2,>=65,Male,White,6,Not Hispanic or Latino,NA,NA,NA,NA,NA,NA,NA,NA,NA,NA,NA,NA,NA,NA,NA,NA,NA,NA,NA,NA,NA,NA,NA,NA,NA,NA,NA,NA,NA,NA,NA,NA,NA,NA,NA,NA,NA,NA,NA,ε3/ε3,NA,NA
ADNI,ADNI-004-01258,1258,4,ADNI1,74.8,Years,2,>=65,Female,White,6,Not Hispanic or Latino,NA,NA,NA,NA,NA,NA,NA,NA,NA,NA,NA,NA,NA,NA,NA,NA,NA,NA,NA,NA,NA,NA,NA,NA,NA,NA,NA,NA,NA,NA,NA,NA,NA,NA,NA,NA,NA,NA,NA,ε2/ε3,NA,NA
ADNI,ADNI-004-01259,1259,4,ADNI1,71.4,Years,2,>=65,Male,White,6,Not Hispanic or Latino,NA,NA,NA,NA,NA,NA,NA,NA,NA,NA,NA,NA,NA,NA,NA,NA,NA,NA,NA,NA,NA,NA,NA,NA,NA,NA,NA,NA,NA,NA,NA,NA,NA,NA,NA,NA,NA,NA,NA,ε2/ε3,NA,NA
ADNI,ADNI-004-01286,1286,4,ADNI1,75.6,Years,2,>=65,Female,White,6,Not Hispanic or Latino,Y,NA,NA,NA,2/23/2007,NA,NA,NA,NA,19,Divorced,NA,NA,CN,NA,NA,NA,NA,5,7,0,0,NA,NA,0,NA,0,30,NA,NA,0,40,21,20,-1,-7.69,50,8,54,ε3/ε3,4.110555,5.426508
ADNI,ADNI-004-01297,1297,4,ADNI1,NA,Years,NA,NA,NA,NA,NA,NA,NA,NA,NA,NA,NA,NA,NA,NA,NA,NA,NA,NA,NA,NA,NA,NA,NA,NA,NA,NA,NA,NA,NA,NA,NA,NA,NA,NA,NA,NA,NA,NA,NA,NA,NA,NA,NA,NA,NA,NA,NA,NA
ADNI,ADNI-004-01298,1298,4,ADNI1,72,Years,2,>=65,Male,White,6,Not Hispanic or Latino,NA,NA,NA,NA,NA,NA,NA,NA,NA,NA,NA,NA,NA,NA,NA,NA,NA,NA,NA,NA,NA,NA,NA,NA,NA,NA,NA,NA,NA,NA,NA,NA,NA,NA,NA,NA,NA,NA,NA,ε3/ε4,NA,NA
ADNI,ADNI-004-01303,1303,4,ADNI1,72.9,Years,2,>=65,Male,White,6,Not Hispanic or Latino,NA,NA,NA,NA,NA,NA,NA,NA,NA,NA,NA,NA,NA,NA,NA,NA,NA,NA,NA,NA,NA,NA,NA,NA,NA,NA,NA,NA,NA,NA,NA,NA,NA,NA,NA,NA,NA,NA,NA,ε2/ε3,NA,NA
ADNI,ADNI-004-02327,2327,4,ADNIGO,72.6,Years,2,>=65,Male,White,6,Not Hispanic or Latino,NA,NA,NA,NA,NA,NA,NA,NA,NA,NA,NA,NA,NA,NA,NA,NA,NA,NA,NA,NA,NA,NA,NA,NA,NA,NA,NA,NA,NA,NA,NA,NA,NA,NA,NA,NA,NA,NA,NA,NA,NA,NA
ADNI,ADNI-004-04150,4150,4,ADNI2,73.9,Years,2,>=65,Male,White,6,Not Hispanic or Latino,Y,NA,NA,NA,9/1/2011,6/10/2019,NA,NA,NA,14,Widowed,NA,NA,CN,Non Elevated,Non Elevated,FBP,6MM,9,17,0,0,NA,NA,0,NA,0,28,NA,0,NA,NA,14,14,3,60,20,3,55,ε3/ε3,NA,-1.960242
ADNI,ADNI-004-04153,4153,4,ADNI2,79.3,Years,2,>=65,Male,White,6,Not Hispanic or Latino,Y,NA,NA,NA,9/9/2011,NA,NA,NA,NA,20,Married,NA,NA,DEM,Elevated,Elevated,FBP,6MM,20,31,0.5,3,NA,NA,4,NA,1,22,NA,2,NA,NA,1,5,5,83.33,16,5,146,ε3/ε4,NA,-14.710545
ADNI,ADNI-004-04166,4166,4,ADNI2,NA,Years,NA,NA,NA,NA,NA,NA,NA,NA,NA,NA,NA,NA,NA,NA,NA,NA,NA,NA,NA,NA,NA,NA,NA,NA,NA,NA,NA,NA,NA,NA,NA,NA,NA,NA,NA,NA,NA,NA,NA,NA,NA,NA,NA,NA,NA,NA,NA,NA
ADNI,ADNI-004-04192,4192,4,ADNI2,82.3,Years,2,>=65,Male,White,6,Not Hispanic or Latino,Y,NA,NA,NA,10/6/2011,NA,NA,NA,NA,12,Married,NA,NA,DEM,Elevated,Elevated,FBP,6MM,13,20,0.5,3,NA,NA,4,NA,2,19,NA,1,NA,NA,0,3,6,75,25,5,90,ε3/ε4,NA,-14.813359
ADNI,ADNI-004-04346,4346,4,ADNI2,71.3,Years,2,>=65,Male,White,6,Not Hispanic or Latino,Y,NA,NA,NA,11/28/2011,NA,NA,NA,NA,18,Married,NA,NA,MCI,Elevated,Elevated,FBP,6MM,11,19,0.5,1.5,NA,NA,15,NA,1,29,NA,0,NA,NA,6,16,10,100,44,3,45,ε4/ε4,NA,-3.436128
ADNI,ADNI-004-04357,4357,4,ADNI2,73.7,Years,2,>=65,Female,White,6,Not Hispanic or Latino,Y,NA,NA,NA,12/16/2011,3/1/2022,NA,NA,NA,16,Married,NA,NA,CN,Non Elevated,Non Elevated,FBP,6MM,5,9,0,0,NA,NA,0,NA,0,30,NA,0,NA,NA,16,17,3,25,49,4,65,ε3/ε3,NA,1.989363
ADNI,ADNI-004-04363,4363,4,ADNI2,73.5,Years,2,>=65,Female,White,6,Not Hispanic or Latino,Y,NA,NA,NA,12/12/2011,NA,NA,NA,NA,13,Widowed,NA,NA,MCI,Elevated,Elevated,FBP,6MM,11.33,21.33,0.5,1.5,NA,NA,3,NA,1,26,NA,0,NA,NA,1,5,4,50,33,4,85,ε3/ε3,NA,-9.993028
ADNI,ADNI-004-04449,4449,4,ADNI2,66.9,Years,2,>=65,Female,White,6,Not Hispanic or Latino,Y,NA,NA,NA,1/30/2012,12/1/2018,NA,NA,NA,12,Divorced,NA,NA,CN,Non Elevated,Non Elevated,FBP,6MM,10.67,15.67,0,0,NA,NA,0,NA,0,28,NA,0,NA,NA,12,12,2,20,36,5,113,ε3/ε3,NA,-2.197096
ADNI,ADNI-004-04485,4485,4,ADNI2,73.3,Years,2,>=65,Male,White,6,Not Hispanic or Latino,Y,NA,NA,NA,2/10/2012,7/13/2021,NA,NA,NA,17,Married,NA,NA,CN,Non Elevated,Non Elevated,FBP,6MM,9,15,0,0,NA,NA,0,NA,0,26,NA,2,NA,NA,20,16,3,21.43,56,8,46,ε3/ε3,NA,-0.995195
ADNI,ADNI-004-04515,4515,4,ADNI2,74.7,Years,2,>=65,Male,White,6,Not Hispanic or Latino,Y,NA,NA,NA,2/23/2012,NA,NA,NA,NA,19,Married,NA,NA,MCI,Elevated,Elevated,FBP,6MM,17.33,27.33,0.5,2,NA,NA,8,NA,2,26,NA,2,NA,NA,3,3,7,100,32,1,102,ε3/ε4,NA,-9.863111
ADNI,ADNI-004-04528,4528,4,ADNI2,73.3,Years,2,>=65,Male,White,6,Not Hispanic or Latino,NA,NA,NA,NA,NA,NA,NA,NA,NA,NA,NA,NA,NA,NA,NA,NA,NA,NA,NA,NA,NA,NA,NA,NA,NA,NA,NA,NA,NA,NA,NA,NA,NA,NA,NA,NA,NA,NA,NA,NA,NA,NA
ADNI,ADNI-004-04546,4546,4,ADNI2,71,Years,2,>=65,Male,White,6,Not Hispanic or Latino,Y,NA,NA,NA,3/12/2012,NA,NA,NA,NA,20,Married,NA,NA,DEM,Elevated,Elevated,FBP,6MM,16.67,27.67,0.5,3,NA,NA,15,NA,1,25,NA,2,NA,NA,5,8,5,100,21,2,175,ε3/ε4,NA,-10.935738
ADNI,ADNI-004-04667,4667,4,ADNI2,68.2,Years,2,>=65,Female,White,6,Not Hispanic or Latino,NA,NA,NA,NA,NA,NA,NA,NA,NA,NA,NA,NA,NA,NA,NA,NA,NA,NA,NA,NA,NA,NA,NA,NA,NA,NA,NA,NA,NA,NA,NA,NA,NA,NA,NA,NA,NA,NA,NA,NA,NA,NA
ADNI,ADNI-004-04673,4673,4,ADNI2,75.9,Years,2,>=65,Male,White,6,Not Hispanic or Latino,NA,NA,NA,NA,NA,NA,NA,NA,NA,NA,NA,NA,NA,NA,NA,NA,NA,NA,NA,NA,NA,NA,NA,NA,NA,NA,NA,NA,NA,NA,NA,NA,NA,NA,NA,NA,NA,NA,NA,NA,NA,NA
ADNI,ADNI-004-04679,4679,4,ADNI2,69.1,Years,2,>=65,Male,White,6,Not Hispanic or Latino,Y,NA,NA,NA,6/20/2012,NA,NA,NA,NA,17,Married,NA,NA,MCI,Elevated,Elevated,FBP,6MM,14,19,0.5,1,NA,NA,0,NA,2,28,NA,0,NA,NA,11,13,7,58.33,42,7,44,ε3/ε4,NA,-1.242918
ADNI,ADNI-004-04713,4713,4,ADNI2,70.6,Years,2,>=65,Male,White,6,Not Hispanic or Latino,Y,NA,NA,NA,5/31/2012,NA,NA,NA,NA,20,Married,NA,NA,MCI,Elevated,Elevated,FBP,6MM,8.67,13.67,0.5,0.5,NA,NA,1,NA,2,30,NA,0,NA,NA,8,7,8,66.67,47,5,44,ε3/ε4,NA,0.119677
ADNI,ADNI-004-04851,4851,4,ADNI2,NA,Years,NA,NA,NA,NA,NA,NA,NA,NA,NA,NA,NA,NA,NA,NA,NA,NA,NA,NA,NA,NA,NA,NA,NA,NA,NA,NA,NA,NA,NA,NA,NA,NA,NA,NA,NA,NA,NA,NA,NA,NA,NA,NA,NA,NA,NA,NA,NA,NA
ADNI,ADNI-004-04867,4867,4,ADNI2,74.5,Years,2,>=65,Male,White,6,Not Hispanic or Latino,Y,NA,NA,NA,8/21/2012,NA,NA,NA,NA,12,Married,NA,NA,DEM,Elevated,Elevated,FBP,6MM,23,36,1,6,NA,NA,24,NA,2,23,NA,37,NA,NA,0,0,3,100,19,-1,151,ε4/ε4,NA,-14.228064
ADNI,ADNI-004-04960,4960,4,ADNI2,59.6,Years,1,<65,Male,White,6,Not Hispanic or Latino,Y,NA,NA,NA,10/24/2012,1/24/2022,NA,NA,NA,20,Married,NA,NA,MCI,Non Elevated,Non Elevated,FBP,6MM,10.33,16.33,0.5,2,NA,NA,0,NA,2,25,NA,0,NA,NA,6,10,6,66.67,41,2,84,ε3/ε4,NA,-6.785589
ADNI,ADNI-004-05044,5044,4,ADNI2,81.6,Years,2,>=65,Male,White,6,Not Hispanic or Latino,NA,NA,NA,NA,NA,NA,NA,NA,NA,NA,NA,NA,NA,NA,NA,NA,NA,NA,NA,NA,NA,NA,NA,NA,NA,NA,NA,NA,NA,NA,NA,NA,NA,NA,NA,NA,NA,NA,NA,NA,NA,NA
ADNI,ADNI-004-05153,5153,4,ADNI2,79,Years,2,>=65,Male,White,6,Not Hispanic or Latino,Y,NA,NA,NA,5/20/2013,NA,NA,NA,NA,18,Married,NA,NA,CN,Non Elevated,Non Elevated,FBP,6MM,5.67,8.67,0,0,NA,NA,1,NA,3,30,NA,3,NA,NA,14,17,6,75,36,1,49,ε3/ε3,NA,2.097962
ADNI,ADNI-004-05189,5189,4,ADNI2,67.9,Years,2,>=65,Female,White,6,Not Hispanic or Latino,NA,NA,NA,NA,NA,NA,NA,NA,NA,NA,NA,NA,NA,NA,NA,NA,NA,NA,NA,NA,NA,NA,NA,NA,NA,NA,NA,NA,NA,NA,NA,NA,NA,NA,NA,NA,NA,NA,NA,NA,NA,NA
ADNI,ADNI-004-06196,6196,4,ADNI3,70.8,Years,2,>=65,Female,White,6,Not Hispanic or Latino,NA,NA,NA,NA,NA,1/25/2018,NA,NA,NA,NA,NA,NA,NA,NA,NA,NA,NA,NA,NA,NA,NA,NA,NA,NA,NA,NA,NA,NA,NA,NA,NA,NA,NA,NA,NA,NA,NA,NA,NA,NA,NA,NA
ADNI,ADNI-004-06209,6209,4,ADNI3,72.3,Years,2,>=65,Male,White,6,Not Hispanic or Latino,Y,NA,NA,NA,2/20/2018,NA,NA,NA,NA,16,Married,NA,NA,CN,Non Elevated,Non Elevated,FBB,6MM,11.67,15.67,0,0,2.128205128,1.153846154,0,72,NA,30,29,0,NA,NA,13,13,5,62.5,25,5,85,ε3/ε3,NA,-0.038034
ADNI,ADNI-004-06234,6234,4,ADNI3,70.6,Years,2,>=65,Female,White,6,Not Hispanic or Latino,Y,NA,NA,NA,3/6/2018,NA,NA,NA,NA,16,Married,NA,NA,CN,Elevated,Non Elevated,FBB,6MM,6.67,9.67,0,0,1.324324324,1.179487179,1,66,NA,27,27,3,NA,NA,12,14,4,40,43,3,69,ε3/ε4,NA,-1.851628
ADNI,ADNI-004-06243,6243,4,ADNI3,66.9,Years,2,>=65,Male,White,6,Not Hispanic or Latino,Y,NA,NA,NA,3/14/2018,NA,NA,NA,NA,14,Married,NA,NA,MCI,Non Elevated,Non Elevated,FBB,6MM,6.33,8.33,0.5,0.5,1.263157895,1.384615385,1,70,NA,29,28,5,NA,NA,5,7,2,20,33,8,45,ε3/ε3,NA,-0.603942
ADNI,ADNI-004-06252,6252,4,ADNI3,74.7,Years,2,>=65,Female,White,6,Not Hispanic or Latino,Y,NA,NA,NA,4/10/2018,10/4/2021,NA,NA,NA,18,Married,NA,NA,MCI,Elevated,Elevated,FBB,6MM,12.67,21.67,0.5,1,1.58974359,2.866666667,NA,53,NA,27,21,0,NA,NA,3,3,5,71.43,22,5,300,ε3/ε4,NA,-10.603117
ADNI,ADNI-004-06277,6277,4,ADNI3,70.8,Years,2,>=65,Female,White,6,Not Hispanic or Latino,Y,NA,NA,NA,4/17/2018,NA,NA,NA,NA,20,Widowed,NA,NA,CN,Non Elevated,Non Elevated,FBB,6MM,2,4,0,0,1.153846154,1.179487179,1,74,NA,29,29,8,NA,NA,14,14,11,78.57,57,6,46,ε3/ε3,NA,1.918766
ADNI,ADNI-004-06291,6291,4,ADNI3,72.3,Years,2,>=65,Male,Black or African American,3,Not Hispanic or Latino,Y,NA,NA,NA,5/10/2018,NA,NA,NA,NA,19,Widowed,NA,NA,MCI,Non Elevated,Non Elevated,FBB,6MM,6.67,10.67,0.5,1,2.974358974,1.137931034,0,69,NA,29,23,0,NA,NA,7,11,5,45.45,46,5,74,ε3/ε3,NA,-2.270018
ADNI,ADNI-004-06337,6337,4,ADNI3,70.7,Years,2,>=65,Male,White,6,Not Hispanic or Latino,NA,NA,NA,NA,NA,4/25/2018,NA,NA,NA,NA,NA,NA,NA,NA,NA,NA,NA,NA,NA,NA,NA,NA,NA,NA,NA,NA,NA,NA,NA,NA,NA,NA,NA,NA,NA,NA,NA,NA,NA,NA,NA,NA
ADNI,ADNI-004-06375,6375,4,ADNI3,69.4,Years,2,>=65,Female,White,6,Not Hispanic or Latino,Y,NA,NA,NA,6/28/2018,NA,NA,NA,NA,17,Married,NA,NA,CN,Elevated,Non Elevated,FBB,6MM,4,5,0,0,1.153846154,1.128205128,0,72,NA,27,29,3,NA,NA,16,17,0,0,56,5,54,ε3/ε3,NA,0.923944
ADNI,ADNI-004-06383,6383,4,ADNI3,75.1,Years,2,>=65,Female,White,6,Not Hispanic or Latino,NA,NA,NA,NA,NA,5/17/2018,NA,NA,NA,NA,NA,NA,NA,NA,NA,NA,NA,NA,NA,NA,NA,NA,NA,NA,NA,NA,NA,NA,NA,NA,NA,NA,NA,NA,NA,NA,NA,NA,NA,NA,NA,NA
ADNI,ADNI-004-06441,6441,4,ADNI3,88.7,Years,2,>=65,Male,White,6,Not Hispanic or Latino,Y,NA,NA,NA,8/2/2018,12/19/2022,NA,NA,NA,20,Married,NA,NA,MCI,Non Elevated,Non Elevated,FBB,6MM,8.67,12.67,0.5,1,2.333333333,1.578947368,0,62,NA,27,25,0,NA,NA,6,11,5,45.45,34,8,48,ε3/ε3,NA,-3.213537
ADNI,ADNI-004-06445,6445,4,ADNI3,69.1,Years,2,>=65,Female,White,6,Not Hispanic or Latino,NA,NA,NA,NA,NA,6/14/2018,NA,NA,NA,NA,NA,NA,NA,NA,NA,NA,NA,NA,NA,NA,NA,NA,NA,NA,NA,NA,NA,NA,NA,NA,NA,NA,NA,NA,NA,NA,NA,NA,NA,NA,NA,NA
ADNI,ADNI-004-06500,6500,4,ADNI3,66.9,Years,2,>=65,Male,White,6,Not Hispanic or Latino,Y,NA,NA,NA,8/21/2018,NA,NA,NA,NA,15,Married,NA,NA,CN,Non Elevated,Non Elevated,FBB,6MM,2,3,0,0,1.205128205,1.153846154,0,74,NA,30,30,8,NA,NA,17,18,3,23.08,51,9,31,ε3/ε4,NA,5.090464
ADNI,ADNI-004-06562,6562,4,ADNI3,77.1,Years,2,>=65,Male,Black or African American,3,Not Hispanic or Latino,NA,NA,NA,NA,NA,8/14/2018,NA,NA,NA,NA,NA,NA,NA,NA,NA,NA,NA,NA,NA,NA,NA,NA,NA,NA,NA,NA,NA,NA,NA,NA,NA,NA,NA,NA,NA,NA,NA,NA,NA,NA,NA,NA
ADNI,ADNI-004-06583,6583,4,ADNI3,67.7,Years,2,>=65,Female,White,6,Not Hispanic or Latino,NA,NA,NA,NA,NA,9/18/2018,NA,NA,NA,NA,NA,NA,NA,NA,NA,NA,NA,NA,NA,NA,NA,NA,NA,NA,NA,NA,NA,NA,NA,NA,NA,NA,NA,NA,NA,NA,NA,NA,NA,NA,NA,NA
ADNI,ADNI-004-06610,6610,4,ADNI3,61.4,Years,1,<65,Male,White,6,Not Hispanic or Latino,Y,NA,NA,NA,11/20/2018,NA,NA,NA,NA,10,Married,NA,NA,MCI,Non Elevated,Non Elevated,FBB,6MM,13.67,18.67,0.5,2.5,1.184210526,2.128205128,5,69,NA,28,24,12,NA,NA,4,6,4,57.14,31,4,199,ε4/ε4,NA,-6.904495
ADNI,ADNI-004-06642,6642,4,ADNI3,58.9,Years,1,<65,Male,White,6,Not Hispanic or Latino,NA,NA,NA,NA,NA,11/27/2018,NA,NA,NA,NA,NA,NA,NA,NA,NA,NA,NA,NA,NA,NA,NA,NA,NA,NA,NA,NA,NA,NA,NA,NA,NA,NA,NA,NA,NA,NA,NA,NA,NA,NA,NA,NA
ADNI,ADNI-004-06651,6651,4,ADNI3,59.3,Years,1,<65,Female,White,6,Not Hispanic or Latino,Y,NA,NA,NA,2/28/2019,NA,NA,NA,NA,16,Married,NA,NA,MCI,Non Elevated,Non Elevated,FBB,6MM,7.33,13.33,0.5,2.5,2.512820513,3.051282051,NA,73,NA,25,25,5,NA,NA,11,12,4,36.36,47,6,73,ε3/ε3,NA,-5.014884
ADNI,ADNI-004-06656,6656,4,ADNI3,70,Years,2,>=65,Female,White,6,Not Hispanic or Latino,NA,NA,NA,NA,NA,12/19/2018,NA,NA,NA,NA,NA,NA,NA,NA,NA,NA,NA,NA,NA,NA,NA,NA,NA,NA,NA,NA,NA,NA,NA,NA,NA,NA,NA,NA,NA,NA,NA,NA,NA,NA,NA,NA
ADNI,ADNI-004-06657,6657,4,ADNI3,77.3,Years,2,>=65,Male,White,6,Not Hispanic or Latino,Y,NA,NA,NA,3/6/2019,NA,NA,NA,NA,18,Married,NA,NA,MCI,Elevated,Elevated,FBB,6MM,11.33,16.33,0.5,0.5,1.871794872,1.171428571,0,55,NA,30,26,NA,NA,NA,5,9,1,10,44,4,102,ε3/ε4,NA,-2.250007
ADNI,ADNI-004-06663,6663,4,ADNI3,66.9,Years,2,>=65,Male,White,6,Not Hispanic or Latino,NA,NA,NA,NA,NA,1/8/2019,NA,NA,NA,NA,NA,NA,NA,NA,NA,NA,NA,NA,NA,NA,NA,NA,NA,NA,NA,NA,NA,NA,NA,NA,NA,NA,NA,NA,NA,NA,NA,NA,NA,NA,NA,NA
ADNI,ADNI-004-06672,6672,4,ADNI3,75,Years,2,>=65,Male,White,6,Not Hispanic or Latino,Y,NA,NA,NA,3/5/2019,7/28/2021,NA,NA,NA,20,Married,NA,NA,MCI,Elevated,Elevated,FBB,6MM,7,12,0.5,0.5,1.842105263,1.692307692,2,72,NA,29,25,0,NA,NA,10,13,5,38.46,43,9,53,ε3/ε3,NA,-1.125566
ADNI,ADNI-004-06674,6674,4,ADNI3,70,Years,2,>=65,Male,White,6,Not Hispanic or Latino,Y,NA,NA,NA,5/10/2019,1/26/2022,NA,NA,NA,20,Married,NA,NA,MCI,Elevated,Elevated,FBB,6MM,12.67,17.67,0.5,0.5,1.538461538,1.230769231,0,68,NA,30,23,0,NA,NA,8,9,4,40,37,6,76,ε3/ε4,NA,-1.197725
ADNI,ADNI-004-06677,6677,4,ADNI3,78.7,Years,2,>=65,Male,White,6,Not Hispanic or Latino,Y,NA,NA,NA,4/11/2019,12/9/2021,NA,NA,NA,16,Married,NA,NA,MCI,Non Elevated,Non Elevated,FBB,6MM,10,13,0.5,2.5,2.307692308,NA,NA,71,NA,24,24,NA,NA,NA,11,9,7,70,37,6,73,ε3/ε3,NA,-4.826112
ADNI,ADNI-004-06681,6681,4,ADNI3,64.8,Years,1,<65,Male,White,6,Not Hispanic or Latino,Y,NA,NA,NA,3/14/2019,NA,NA,NA,NA,16,Married,NA,NA,MCI,Elevated,Elevated,FBB,6MM,4.33,6.33,0.5,0.5,1.358974359,1.157894737,0,74,NA,29,28,6,NA,NA,7,8,8,88.89,37,5,55,ε3/ε4,NA,-0.514072
ADNI,ADNI-004-06682,6682,4,ADNI3,76.1,Years,2,>=65,Male,White,6,Not Hispanic or Latino,Y,NA,NA,NA,3/26/2019,NA,NA,NA,NA,19,Married,NA,NA,MCI,Elevated,Elevated,FBB,6MM,6.67,9.67,0.5,0.5,1.333333333,1.028571429,0,72,NA,30,28,NA,NA,NA,10,12,-1,-12.5,39,2,68,ε3/ε4,NA,0.163371
ADNI,ADNI-004-06689,6689,4,ADNI3,75.1,Years,2,>=65,Male,White,6,Not Hispanic or Latino,Y,NA,NA,NA,4/3/2019,NA,NA,NA,NA,14,Married,NA,NA,DEM,Elevated,Elevated,FBB,6MM,17.33,24.33,0.5,3.5,2.564102564,2.432432432,7,33,NA,20,15,1,NA,NA,0,2,6,100,19,2,180,ε3/ε4,NA,-15.129463
ADNI,ADNI-004-06696,6696,4,ADNI3,68,Years,2,>=65,Female,White,6,Not Hispanic or Latino,Y,NA,NA,NA,5/21/2019,7/25/2019,NA,NA,NA,20,Divorced,NA,NA,MCI,Non Elevated,Non Elevated,FBB,6MM,12.67,17.67,0.5,1,2.315789474,NA,NA,62,NA,28,26,NA,NA,NA,9,11,8,100,38,4,115,ε3/ε3,NA,-3.61796
ADNI,ADNI-004-06727,6727,4,ADNI3,73.1,Years,2,>=65,Female,White,6,Not Hispanic or Latino,Y,NA,NA,NA,6/12/2019,7/1/2021,NA,NA,NA,16,Married,NA,NA,MCI,Non Elevated,Non Elevated,FBB,6MM,8,10,0.5,0.5,1.487179487,1.105263158,0,60,NA,30,29,0,NA,NA,8,9,3,33.33,38,5,162,ε3/ε3,NA,-1.997598
ADNI,ADNI-004-06740,6740,4,ADNI3,84.4,Years,2,>=65,Female,White,6,Not Hispanic or Latino,NA,NA,NA,NA,NA,5/28/2019,NA,NA,NA,NA,NA,NA,NA,NA,NA,NA,NA,NA,NA,NA,NA,NA,NA,NA,NA,NA,NA,NA,NA,NA,NA,NA,NA,NA,NA,NA,NA,NA,NA,NA,NA,NA
ADNI,ADNI-004-06770,6770,4,ADNI3,84.5,Years,2,>=65,Female,White,6,Not Hispanic or Latino,Y,NA,NA,NA,8/22/2019,NA,NA,NA,NA,19,Married,NA,NA,MCI,Elevated,Elevated,FBB,6MM,14,25,0.5,2,2.394736842,2.333333333,1,37,NA,29,15,6,NA,NA,10,11,4,66.67,30,0,138,ε3/ε3,NA,-6.043106
ADNI,ADNI-004-06783,6783,4,ADNI3,90.2,Years,2,>=65,Female,White,6,Not Hispanic or Latino,NA,NA,NA,NA,NA,7/24/2019,NA,NA,NA,NA,NA,NA,NA,NA,NA,NA,NA,NA,NA,NA,NA,NA,NA,NA,NA,NA,NA,NA,NA,NA,NA,NA,NA,NA,NA,NA,NA,NA,NA,NA,NA,NA
ADNI,ADNI-005-00264,264,5,ADNI1,74.2,Years,2,>=65,Female,White,6,Not Hispanic or Latino,NA,NA,NA,NA,NA,NA,NA,NA,NA,NA,NA,NA,NA,NA,NA,NA,NA,NA,NA,NA,NA,NA,NA,NA,NA,NA,NA,NA,NA,NA,NA,NA,NA,NA,NA,NA,NA,NA,NA,ε3/ε3,NA,NA
ADNI,ADNI-005-00271,271,5,ADNI1,78.8,Years,2,>=65,Male,White,6,Not Hispanic or Latino,NA,NA,NA,NA,NA,NA,NA,NA,NA,NA,NA,NA,NA,NA,NA,NA,NA,NA,NA,NA,NA,NA,NA,NA,NA,NA,NA,NA,NA,NA,NA,NA,NA,NA,NA,NA,NA,NA,NA,ε3/ε3,NA,NA
ADNI,ADNI-005-00360,360,5,ADNI1,73.1,Years,2,>=65,Male,White,6,Not Hispanic or Latino,Y,NA,NA,NA,5/16/2006,NA,NA,NA,NA,18,Married,NA,NA,CN,NA,NA,NA,NA,6.67,12.67,0,0,NA,NA,0,NA,0,29,NA,NA,0,37,9,11,4,66.67,26,2,72,ε3/ε3,-3.586487,-2.670853
ADNI,ADNI-005-00361,361,5,ADNI1,74.5,Years,2,>=65,Male,White,6,Not Hispanic or Latino,Y,Yes,NA,NA,5/10/2006,6/30/2018,M,6/30/2018,M,17,Married,NA,NA,MCI,NA,NA,NA,NA,17,26,0.5,1.5,NA,NA,4,NA,0,29,NA,NA,0,37,7,12,7,100,29,3,73,ε3/ε4,-5.717984,-4.835719
ADNI,ADNI-005-00367,367,5,ADNI1,72.8,Years,2,>=65,Male,White,6,Not Hispanic or Latino,NA,NA,NA,NA,NA,NA,NA,NA,NA,NA,NA,NA,NA,NA,NA,NA,NA,NA,NA,NA,NA,NA,NA,NA,NA,NA,NA,NA,NA,NA,NA,NA,NA,NA,NA,NA,NA,NA,NA,NA,NA,NA
ADNI,ADNI-005-00370,370,5,ADNI1,74.6,Years,2,>=65,Female,Asian,2,Not Hispanic or Latino,Y,NA,NA,NA,5/11/2006,NA,NA,NA,NA,16,Married,NA,NA,DEM,NA,NA,NA,NA,9.67,18.67,1,5,NA,NA,12,NA,1,25,NA,NA,6,54,0,2,6,100,31,0,95,ε3/ε3,-9.457374,-10.879932
ADNI,ADNI-005-00382,382,5,ADNI1,75.6,Years,2,>=65,Female,White,6,Not Hispanic or Latino,Y,NA,NA,NA,6/1/2006,NA,NA,NA,NA,20,Married,NA,NA,CN,NA,NA,NA,NA,3.67,5.67,0,0,NA,NA,0,NA,1,29,NA,NA,0,58,11,14,4,36.36,43,7,60,ε3/ε3,1.123289,0.420822
ADNI,ADNI-005-00392,392,5,ADNI1,84.6,Years,2,>=65,Female,White,6,Not Hispanic or Latino,Y,NA,NA,NA,6/20/2006,NA,NA,NA,NA,17,Married,NA,NA,DEM,NA,NA,NA,NA,24,36,0.5,3.5,NA,NA,16,NA,1,20,NA,NA,7,26,0,0,4,100,18,1,190,ε4/ε4,-16.975225,-17.340254
ADNI,ADNI-005-00487,487,5,ADNI1,76.5,Years,2,>=65,Male,White,6,Not Hispanic or Latino,Y,NA,NA,NA,6/12/2006,NA,NA,NA,NA,20,Married,NA,NA,DEM,NA,NA,NA,NA,16.67,29.67,0.5,3,NA,NA,12,NA,6,22,NA,NA,0,19,0,0,3,100,14,1,205,ε3/ε4,-15.440331,-15.304599
ADNI,ADNI-005-00494,494,5,ADNI1,68,Years,2,>=65,Male,White,6,Not Hispanic or Latino,NA,NA,NA,NA,NA,NA,NA,NA,NA,NA,NA,NA,NA,NA,NA,NA,NA,NA,NA,NA,NA,NA,NA,NA,NA,NA,NA,NA,NA,NA,NA,NA,NA,NA,NA,NA,NA,NA,NA,NA,NA,NA
ADNI,ADNI-005-00495,495,5,ADNI1,61.7,Years,1,<65,Male,White,6,Not Hispanic or Latino,NA,NA,NA,NA,NA,NA,NA,NA,NA,NA,NA,NA,NA,NA,NA,NA,NA,NA,NA,NA,NA,NA,NA,NA,NA,NA,NA,NA,NA,NA,NA,NA,NA,NA,NA,NA,NA,NA,NA,NA,NA,NA
ADNI,ADNI-005-00496,496,5,ADNI1,73.6,Years,2,>=65,Female,White,6,Not Hispanic or Latino,NA,NA,NA,NA,NA,NA,NA,NA,NA,NA,NA,NA,NA,NA,NA,NA,NA,NA,NA,NA,NA,NA,NA,NA,NA,NA,NA,NA,NA,NA,NA,NA,NA,NA,NA,NA,NA,NA,NA,ε3/ε3,NA,NA
ADNI,ADNI-005-00648,648,5,ADNI1,71.5,Years,2,>=65,Female,White,6,Not Hispanic or Latino,Y,NA,NA,NA,8/15/2006,NA,NA,NA,NA,14,Widowed,NA,NA,CN,NA,NA,NA,NA,12.67,19.67,0,0,NA,NA,0,NA,0,30,NA,NA,0,40,11,12,8,100,35,4,82,ε3/ε3,-1.869408,-1.562722
ADNI,ADNI-005-00649,649,5,ADNI1,86.7,Years,2,>=65,Male,White,6,Not Hispanic or Latino,Y,Yes,NA,NA,8/16/2006,6/30/2015,M,6/30/2015,M,20,Married,NA,NA,MCI,NA,NA,NA,NA,9.67,16.67,0.5,1,NA,NA,5,NA,4,26,NA,NA,3,37,3,12,6,85.71,26,3,107,ε2/ε4,-8.375213,-8.420196
ADNI,ADNI-005-00657,657,5,ADNI1,77.8,Years,2,>=65,Female,White,6,Not Hispanic or Latino,Y,NA,NA,NA,9/7/2006,NA,NA,NA,NA,13,Married,NA,NA,CN,NA,NA,NA,NA,10.33,15.33,0,0.5,NA,NA,0,NA,0,29,NA,NA,0,52,9,12,4,40,39,5,119,ε2/ε3,-1.596366,-3.370155
ADNI,ADNI-005-00752,752,5,ADNI1,82,Years,2,>=65,Female,White,6,Not Hispanic or Latino,Y,Yes,NA,NA,8/29/2006,12/31/2018,NA,6/30/2018,M,16,Widowed,NA,NA,MCI,NA,NA,NA,NA,17.33,30.33,0.5,2,NA,NA,11,NA,2,24,NA,NA,1,25,8,14,7,100,29,3,204,ε3/ε4,-11.38125,-11.821742
ADNI,ADNI-005-00801,801,5,ADNI1,66.9,Years,2,>=65,Female,White,6,Not Hispanic or Latino,NA,NA,NA,NA,NA,NA,NA,NA,NA,NA,NA,NA,NA,NA,NA,NA,NA,NA,NA,NA,NA,NA,NA,NA,NA,NA,NA,NA,NA,NA,NA,NA,NA,NA,NA,NA,NA,NA,NA,NA,NA,NA
ADNI,ADNI-005-00834,834,5,ADNI1,63.9,Years,1,<65,Male,White,6,Not Hispanic or Latino,Y,Yes,NA,NA,10/17/2006,6/30/2011,M,6/30/2011,M,13,Married,NA,NA,MCI,NA,NA,NA,NA,12,18,0.5,3.5,NA,NA,5,NA,4,26,NA,NA,11,42,0,2,2,100,12,-1,74,ε3/ε4,-8.22384,-7.864629
ADNI,ADNI-005-00837,837,5,ADNI1,74,Years,2,>=65,Female,White,6,Not Hispanic or Latino,NA,NA,NA,NA,NA,NA,NA,NA,NA,NA,NA,NA,NA,NA,NA,NA,NA,NA,NA,NA,NA,NA,NA,NA,NA,NA,NA,NA,NA,NA,NA,NA,NA,NA,NA,NA,NA,NA,NA,ε3/ε3,NA,NA
ADNI,ADNI-005-00890,890,5,ADNI1,59.8,Years,1,<65,Female,White,6,Not Hispanic or Latino,Y,NA,NA,NA,2/7/2007,NA,NA,NA,NA,14,Married,NA,NA,MCI,NA,NA,NA,NA,12.67,18.67,0.5,2.5,NA,NA,3,NA,0,30,NA,NA,2,42,1,3,11,100,35,6,65,ε4/ε4,-4.53497,-3.862233
ADNI,ADNI-005-01083,1083,5,ADNI1,72,Years,2,>=65,Female,White,6,Not Hispanic or Latino,Y,NA,NA,NA,11/29/2006,NA,NA,NA,NA,16,Married,NA,NA,DEM,NA,NA,NA,NA,13.67,21.67,0.5,2.5,NA,NA,10,NA,0,22,NA,NA,1,45,4,13,9,90,41,3,126,ε3/ε3,-11.227273,-12.453928
ADNI,ADNI-005-01232,1232,5,ADNI1,72.1,Years,2,>=65,Female,White,6,Not Hispanic or Latino,Y,NA,NA,NA,2/13/2007,NA,NA,NA,NA,14,Married,NA,NA,CN,NA,NA,NA,NA,3.33,5.33,0,0,NA,NA,0,NA,0,28,NA,NA,0,44,16,17,0,0,45,5,103,ε3/ε3,0.33105,-0.307557
ADNI,ADNI-005-01243,1243,5,ADNI1,77.3,Years,2,>=65,Male,White,6,Not Hispanic or Latino,Y,NA,NA,NA,2/23/2007,NA,NA,NA,NA,16,Married,NA,NA,MCI,NA,NA,NA,NA,14.33,20.33,0.5,0.5,NA,NA,0,NA,0,27,NA,NA,1,51,8,11,5,83.33,30,2,49,ε3/ε4,-4.201633,-3.730212
ADNI,ADNI-005-01249,1249,5,ADNI1,70.8,Years,2,>=65,Female,White,6,Not Hispanic or Latino,Y,NA,NA,NA,2/14/2007,NA,NA,NA,NA,15,Married,NA,NA,CN,NA,NA,NA,NA,5.67,6.67,0,0,NA,NA,0,NA,0,30,NA,NA,0,40,14,15,8,57.14,47,9,61,ε3/ε4,1.5877,2.609827
ADNI,ADNI-005-01271,1271,5,ADNI1,71.3,Years,2,>=65,Male,White,6,Not Hispanic or Latino,Y,Yes,NA,NA,3/20/2007,6/30/2012,M,6/30/2012,M,16,Married,NA,NA,MCI,NA,NA,NA,NA,11.67,19.67,0.5,3.5,NA,NA,6,NA,2,27,NA,NA,1,34,3,6,3,50,30,2,93,ε3/ε4,-7.29889,-6.709283
ADNI,ADNI-005-01312,1312,5,ADNI1,84.4,Years,2,>=65,Male,White,6,Not Hispanic or Latino,NA,NA,NA,NA,NA,NA,NA,NA,NA,NA,NA,NA,NA,NA,NA,NA,NA,NA,NA,NA,NA,NA,NA,NA,NA,NA,NA,NA,NA,NA,NA,NA,NA,NA,NA,NA,NA,NA,NA,ε3/ε3,NA,NA
ADNI,ADNI-005-01315,1315,5,ADNI1,83.4,Years,2,>=65,Female,White,6,Not Hispanic or Latino,Y,NA,NA,NA,3/23/2007,NA,NA,NA,NA,14,Widowed,NA,NA,MCI,NA,NA,NA,NA,15.67,24.67,0.5,1,NA,NA,4,NA,4,25,NA,NA,3,30,1,3,7,100,32,2,160,ε3/ε3,-11.004122,-11.342182
ADNI,ADNI-005-02058,2058,5,ADNIGO,84,Years,2,>=65,Female,White,6,Not Hispanic or Latino,Y,NA,NA,NA,9/20/2010,NA,NA,NA,NA,12,Married,NA,NA,MCI,Non Elevated,Non Elevated,FBP,6MM,13,22,0.5,1,NA,NA,2,NA,1,27,NA,NA,1,NA,6,9,7,87.5,30,5,225,ε3/ε4,NA,-7.482602
ADNI,ADNI-005-02097,2097,5,ADNIGO,80.2,Years,2,>=65,Male,White,6,Not Hispanic or Latino,NA,NA,NA,NA,NA,NA,NA,NA,NA,NA,NA,NA,NA,NA,NA,NA,NA,NA,NA,NA,NA,NA,NA,NA,NA,NA,NA,NA,NA,NA,NA,NA,NA,NA,NA,NA,NA,NA,NA,NA,NA,NA
ADNI,ADNI-005-02106,2106,5,ADNIGO,77.5,Years,2,>=65,Male,White,6,Not Hispanic or Latino,Y,NA,NA,NA,10/13/2010,NA,NA,NA,NA,12,Married,NA,NA,MCI,Elevated,Elevated,FBP,6MM,8,15,0.5,1,NA,NA,1,NA,2,29,NA,NA,1,NA,7,7,2,40,20,3,83,ε3/ε3,NA,-3.067693
ADNI,ADNI-005-02371,2371,5,ADNIGO,NA,Years,NA,NA,NA,NA,NA,NA,NA,NA,NA,NA,NA,NA,NA,NA,NA,NA,NA,NA,NA,NA,NA,NA,NA,NA,NA,NA,NA,NA,NA,NA,NA,NA,NA,NA,NA,NA,NA,NA,NA,NA,NA,NA,NA,NA,NA,NA,NA,NA
ADNI,ADNI-005-02383,2383,5,ADNIGO,66.3,Years,2,>=65,Female,White,6,Not Hispanic or Latino,NA,NA,NA,NA,NA,NA,NA,NA,NA,NA,NA,NA,NA,NA,NA,NA,NA,NA,NA,NA,NA,NA,NA,NA,NA,NA,NA,NA,NA,NA,NA,NA,NA,NA,NA,NA,NA,NA,NA,NA,NA,NA
ADNI,ADNI-005-02384,2384,5,ADNIGO,71.8,Years,2,>=65,Male,White,6,Not Hispanic or Latino,NA,NA,NA,NA,NA,NA,NA,NA,NA,NA,NA,NA,NA,NA,NA,NA,NA,NA,NA,NA,NA,NA,NA,NA,NA,NA,NA,NA,NA,NA,NA,NA,NA,NA,NA,NA,NA,NA,NA,NA,NA,NA
ADNI,ADNI-005-02394,2394,5,ADNIGO,67.5,Years,2,>=65,Male,White,6,Not Hispanic or Latino,Y,NA,NA,NA,7/19/2011,NA,NA,NA,NA,20,Married,NA,NA,MCI,Non Elevated,Non Elevated,FBP,6MM,5.67,7.67,0.5,0.5,NA,NA,0,NA,1,30,NA,NA,0,NA,10,10,6,54.55,39,5,82,ε4/ε4,NA,0.230015
ADNI,ADNI-005-04272,4272,5,ADNI2,70.9,Years,2,>=65,Male,White,6,Not Hispanic or Latino,Y,NA,NA,NA,10/31/2011,NA,NA,NA,NA,12,Married,NA,NA,MCI,Non Elevated,Non Elevated,FBP,6MM,18.67,24.67,0.5,1,NA,NA,2,NA,3,28,NA,0,NA,NA,5,6,3,50,29,3,102,ε3/ε3,NA,-5.510535
ADNI,ADNI-005-04333,4333,5,ADNI2,66.7,Years,2,>=65,Female,White,6,Not Hispanic or Latino,NA,NA,NA,NA,NA,NA,NA,NA,NA,NA,NA,NA,NA,NA,NA,NA,NA,NA,NA,NA,NA,NA,NA,NA,NA,NA,NA,NA,NA,NA,NA,NA,NA,NA,NA,NA,NA,NA,NA,NA,NA,NA
ADNI,ADNI-005-04364,4364,5,ADNI2,67.8,Years,2,>=65,Female,White,6,Not Hispanic or Latino,NA,NA,NA,NA,NA,NA,NA,NA,NA,NA,NA,NA,NA,NA,NA,NA,NA,NA,NA,NA,NA,NA,NA,NA,NA,NA,NA,NA,NA,NA,NA,NA,NA,NA,NA,NA,NA,NA,NA,NA,NA,NA
ADNI,ADNI-005-04387,4387,5,ADNI2,76.1,Years,2,>=65,Female,White,6,Not Hispanic or Latino,Y,NA,NA,NA,12/19/2011,NA,NA,NA,NA,16,Married,NA,NA,CN,Non Elevated,Non Elevated,FBP,6MM,5.33,8.33,0,0,NA,NA,0,NA,0,29,NA,0,NA,NA,10,11,5,71.43,36,1,72,ε3/ε4,NA,-0.825518
ADNI,ADNI-005-04467,4467,5,ADNI2,61.9,Years,1,<65,Female,White,6,Not Hispanic or Latino,Y,NA,NA,NA,2/8/2012,NA,NA,NA,NA,12,Married,NA,NA,MCI,Elevated,Elevated,FBP,6MM,12.67,17.67,0.5,0.5,NA,NA,0,NA,4,27,NA,0,NA,NA,9,10,7,100,35,5,163,ε4/ε4,NA,-5.837642
ADNI,ADNI-005-04488,4488,5,ADNI2,72.7,Years,2,>=65,Male,White,6,Not Hispanic or Latino,Y,NA,NA,NA,2/16/2012,NA,NA,NA,NA,18,Married,NA,NA,CN,Non Elevated,Non Elevated,FBP,6MM,5.33,8.33,0,0,NA,NA,0,NA,0,30,NA,0,NA,NA,16,15,2,18.18,55,2,39,ε3/ε3,NA,3.217569
ADNI,ADNI-005-04516,4516,5,ADNI2,71.4,Years,2,>=65,Male,White,6,Not Hispanic or Latino,Y,Yes,NA,NA,2/27/2012,6/30/2017,M,6/30/2017,M,20,Married,NA,NA,CN,Non Elevated,Non Elevated,FBP,6MM,9,12,0,0,NA,NA,0,NA,0,28,NA,0,NA,NA,15,14,9,100,34,6,68,ε3/ε3,NA,-0.107176
ADNI,ADNI-005-04568,4568,5,ADNI2,70.7,Years,2,>=65,Female,White,6,Not Hispanic or Latino,Y,NA,NA,NA,3/19/2012,NA,NA,NA,NA,16,Married,NA,NA,DEM,Elevated,Elevated,FBP,6MM,13.33,23.33,0.5,3,NA,NA,11,NA,3,23,NA,1,NA,NA,0,3,8,100,34,3,64,ε3/ε4,NA,-12.144589
ADNI,ADNI-005-04611,4611,5,ADNI2,67,Years,2,>=65,Male,White,6,Not Hispanic or Latino,Y,NA,NA,NA,4/9/2012,NA,NA,NA,NA,18,Divorced,NA,NA,MCI,Elevated,Elevated,FBP,6MM,8.33,11.33,0.5,1.5,NA,NA,2,NA,2,25,NA,1,NA,NA,1,5,6,66.67,34,5,58,ε3/ε4,NA,-6.281466
ADNI,ADNI-005-04620,4620,5,ADNI2,77.1,Years,2,>=65,Male,White,6,Not Hispanic or Latino,Y,NA,NA,NA,4/16/2012,NA,NA,NA,NA,19,Married,NA,NA,CN,Non Elevated,Non Elevated,FBP,6MM,5,9,0,0,NA,NA,0,NA,0,30,NA,1,NA,NA,12,13,3,27.27,47,5,60,ε3/ε3,NA,0.518211
ADNI,ADNI-005-04637,4637,5,ADNI2,70.9,Years,2,>=65,Female,White,6,Not Hispanic or Latino,Y,NA,NA,NA,4/16/2012,NA,NA,NA,NA,18,Married,NA,NA,CN,Non Elevated,Non Elevated,FBP,6MM,1.67,1.67,0,0,NA,NA,0,NA,0,29,NA,0,NA,NA,16,15,0,0,53,7,61,ε3/ε3,NA,2.851198
ADNI,ADNI-005-04753,4753,5,ADNI2,62.5,Years,1,<65,Male,White,6,Not Hispanic or Latino,NA,NA,NA,NA,NA,NA,NA,NA,NA,NA,NA,NA,NA,NA,NA,NA,NA,NA,NA,NA,NA,NA,NA,NA,NA,NA,NA,NA,NA,NA,NA,NA,NA,NA,NA,NA,NA,NA,NA,NA,NA,NA
ADNI,ADNI-005-04790,4790,5,ADNI2,84,Years,2,>=65,Female,White,6,Not Hispanic or Latino,NA,NA,NA,NA,NA,NA,NA,NA,NA,NA,NA,NA,NA,NA,NA,NA,NA,NA,NA,NA,NA,NA,NA,NA,NA,NA,NA,NA,NA,NA,NA,NA,NA,NA,NA,NA,NA,NA,NA,NA,NA,NA
ADNI,ADNI-005-04911,4911,5,ADNI2,74.5,Years,2,>=65,Male,White,6,Not Hispanic or Latino,Y,NA,NA,NA,9/10/2012,NA,NA,NA,NA,20,Married,NA,NA,DEM,Elevated,Elevated,FBP,6MM,20.67,32.67,1,4.5,NA,NA,22,NA,0,21,NA,13,NA,NA,3,5,6,85.71,23,7,300,ε3/ε3,NA,-15.70718
ADNI,ADNI-005-05190,5190,5,ADNI2,64.5,Years,1,<65,Male,White,6,Not Hispanic or Latino,NA,NA,NA,NA,NA,NA,NA,NA,NA,NA,NA,NA,NA,NA,NA,NA,NA,NA,NA,NA,NA,NA,NA,NA,NA,NA,NA,NA,NA,NA,NA,NA,NA,NA,NA,NA,NA,NA,NA,NA,NA,NA
ADNI,ADNI-005-05196,5196,5,ADNI2,72.9,Years,2,>=65,Female,White,6,Not Hispanic or Latino,Y,NA,NA,NA,6/13/2013,NA,NA,NA,NA,18,Married,NA,NA,DEM,Elevated,Elevated,FBP,6MM,18.33,27.33,0.5,2.5,NA,NA,8,NA,1,21,NA,10,NA,NA,0,4,5,100,24,0,96,ε3/ε4,NA,-13.788332
ADNI,ADNI-005-05239,5239,5,ADNI2,81.1,Years,2,>=65,Male,White,6,Hispanic or Latino,NA,NA,NA,NA,NA,NA,NA,NA,NA,NA,NA,NA,NA,NA,NA,NA,NA,NA,NA,NA,NA,NA,NA,NA,NA,NA,NA,NA,NA,NA,NA,NA,NA,NA,NA,NA,NA,NA,NA,NA,NA,NA
ADNI,ADNI-005-05260,5260,5,ADNI2,69.4,Years,2,>=65,Female,White,6,Not Hispanic or Latino,NA,NA,NA,NA,NA,NA,NA,NA,NA,NA,NA,NA,NA,NA,NA,NA,NA,NA,NA,NA,NA,NA,NA,NA,NA,NA,NA,NA,NA,NA,NA,NA,NA,NA,NA,NA,NA,NA,NA,NA,NA,NA
ADNI,ADNI-005-05265,5265,5,ADNI2,75.1,Years,2,>=65,Female,White,6,Not Hispanic or Latino,Y,NA,NA,NA,8/12/2013,NA,NA,NA,NA,18,Never married,NA,NA,CN,Elevated,Elevated,FBP,6MM,3.67,6.67,0,0,NA,NA,0,NA,1,30,NA,0,NA,NA,18,16,1,9.09,43,5,104,ε3/ε3,NA,1.94265
ADNI,ADNI-005-06120,6120,5,ADNI3,67.8,Years,2,>=65,Male,White,6,Not Hispanic or Latino,Y,NA,NA,NA,11/28/2017,11/1/2019,NA,NA,NA,15,Married,NA,NA,CN,Non Elevated,Non Elevated,FBB,6MM,5.67,5.67,0,0,1.358974359,1.076923077,0,70,NA,28,27,0,NA,NA,12,12,5,45.45,40,6,57,ε2/ε3,NA,1.019442
ADNI,ADNI-005-06166,6166,5,ADNI3,63.4,Years,1,<65,Female,White,6,Not Hispanic or Latino,NA,NA,NA,NA,NA,1/8/2018,NA,NA,NA,NA,NA,NA,NA,NA,NA,NA,NA,NA,NA,NA,NA,NA,NA,NA,NA,NA,NA,NA,NA,NA,NA,NA,NA,NA,NA,NA,NA,NA,NA,NA,NA,NA
ADNI,ADNI-005-06205,6205,5,ADNI3,67.6,Years,2,>=65,Male,White,6,Not Hispanic or Latino,NA,NA,NA,NA,NA,2/6/2018,NA,NA,NA,NA,NA,NA,NA,NA,NA,NA,NA,NA,NA,NA,NA,NA,NA,NA,NA,NA,NA,NA,NA,NA,NA,NA,NA,NA,NA,NA,NA,NA,NA,NA,NA,NA
ADNI,ADNI-005-06255,6255,5,ADNI3,75.3,Years,2,>=65,Female,White,6,Not Hispanic or Latino,Y,NA,NA,NA,4/3/2018,NA,NA,NA,NA,13,Married,NA,NA,CN,Elevated,Elevated,FBB,6MM,3,6,0,0,1.512820513,1.076923077,0,72,NA,30,24,0,NA,NA,11,12,6,75,37,2,71,ε3/ε4,NA,0.34515
ADNI,ADNI-005-06310,6310,5,ADNI3,67.2,Years,2,>=65,Female,White,6,Not Hispanic or Latino,Y,NA,NA,NA,5/7/2018,NA,NA,NA,NA,16,Married,NA,NA,CN,Non Elevated,Non Elevated,FBB,6MM,5,7,0,0,1.378378378,1,0,68,NA,28,26,0,NA,NA,13,13,5,38.46,47,10,82,ε3/ε4,NA,-0.612855
ADNI,ADNI-005-06323,6323,5,ADNI3,66.3,Years,2,>=65,Male,White,6,Not Hispanic or Latino,Y,NA,NA,NA,6/12/2018,NA,NA,NA,NA,14,Married,NA,NA,CN,Non Elevated,Non Elevated,FBB,6MM,3,6,0,0,1.076923077,1.736842105,0,71,NA,28,23,0,NA,NA,12,12,3,50,27,1,58,ε3/ε3,NA,-0.061933
ADNI,ADNI-005-06341,6341,5,ADNI3,67.2,Years,2,>=65,Male,White,6,Not Hispanic or Latino,Y,NA,NA,NA,5/29/2018,NA,NA,NA,NA,12,Married,NA,NA,MCI,Elevated,Elevated,FBB,6MM,15.33,26.33,0.5,2.5,1.461538462,2.153846154,8,36,NA,19,17,4,NA,NA,1,9,5,100,23,0,132,ε3/ε4,NA,-17.017111
ADNI,ADNI-005-06421,6421,5,ADNI3,65.3,Years,2,>=65,Male,White,6,Not Hispanic or Latino,Y,NA,NA,NA,6/28/2018,11/30/2020,NA,NA,NA,18,Married,NA,NA,MCI,Non Elevated,Non Elevated,FBB,6MM,9.67,13.67,0.5,1,1.666666667,1.625,1,72,NA,26,25,20,NA,NA,15,12,10,100,37,7,67,ε3/ε4,NA,-2.29245
ADNI,ADNI-005-06455,6455,5,ADNI3,68,Years,2,>=65,Female,White,6,Not Hispanic or Latino,Y,NA,NA,NA,7/11/2018,NA,NA,NA,NA,18,Married,NA,NA,CN,Non Elevated,Non Elevated,FBB,6MM,5.67,7.67,0,0,1.358974359,1.096774194,0,74,NA,28,30,0,NA,NA,7,13,7,70,47,5,50,ε3/ε4,NA,-1.135366
ADNI,ADNI-005-06515,6515,5,ADNI3,90,Years,2,>=65,Female,White,6,Not Hispanic or Latino,Y,NA,NA,NA,8/22/2018,NA,NA,NA,NA,15,Widowed,NA,NA,CN,Elevated,Elevated,FBB,6MM,6.33,8.33,0,0,1.512820513,1.027027027,0,66,NA,30,26,0,NA,NA,19,20,9,69.23,47,6,57,ε3/ε3,NA,3.684478
ADNI,ADNI-005-06521,6521,5,ADNI3,66.5,Years,2,>=65,Female,White,6,Not Hispanic or Latino,Y,NA,NA,NA,11/13/2018,10/17/2022,NA,NA,NA,18,Divorced,NA,NA,CN,Non Elevated,Non Elevated,FBB,6MM,4,6,0,0,1,1.230769231,0,72,NA,30,26,0,NA,NA,17,16,2,28.57,25,4,62,ε3/ε4,NA,2.909345
ADNI,ADNI-005-06638,6638,5,ADNI3,59,Years,1,<65,Male,White,6,Not Hispanic or Latino,NA,NA,NA,NA,NA,11/27/2018,NA,NA,NA,NA,NA,NA,NA,NA,NA,NA,NA,NA,NA,NA,NA,NA,NA,NA,NA,NA,NA,NA,NA,NA,NA,NA,NA,NA,NA,NA,NA,NA,NA,NA,NA,NA
ADNI,ADNI-005-10100,10100,5,ADNI4,76.2,Years,2,>=65,Female,Black or African American,3,Not Hispanic or Latino,Y,NA,NA,NA,7/18/2024,NA,NA,NA,NA,18,Divorced,NA,NA,CN,NA,NA,NA,NA,8,17,0,0.5,NA,NA,1,NA,NA,26,21,6,NA,NA,13,15,3,25,42,8,119,ε3/ε3,NA,-5.816989
ADNI,ADNI-005-10101,10101,5,ADNI4,59.2,Years,1,<65,Female,White,6,Hispanic or Latino,Y,NA,NA,NA,10/22/2024,NA,NA,NA,NA,20,Married,NA,NA,CN,NA,NA,NA,NA,2,2,0,0.5,NA,NA,0,NA,NA,29,28,0,NA,NA,20,18,0,0,71,3,47,ε3/ε3,NA,4.623548
ADNI,ADNI-005-10205,10205,5,ADNI4,77,Years,2,>=65,Female,White,6,Not Hispanic or Latino,Y,NA,NA,NA,10/7/2024,NA,NA,NA,NA,18,Married,NA,NA,MCI,NA,NA,NA,NA,11,21,0.5,0.5,NA,NA,5,NA,NA,25,19,1,NA,NA,5,9,6,75,27,5,94,ε3/ε4,NA,-9.943167
ADNI,ADNI-005-10237,10237,5,ADNI4,59.4,Years,1,<65,Female,White,6,Hispanic or Latino,Y,NA,NA,NA,4/8/2025,NA,NA,NA,NA,18,Married,NA,NA,CN,NA,NA,NA,NA,4,6,0,0,NA,NA,0,NA,NA,29,22,0,NA,NA,6,8,2,14.29,58,5,70,NA,NA,-1.382307
ADNI,ADNI-005-10240,10240,5,ADNI4,66.9,Years,2,>=65,Female,Black or African American,3,Not Hispanic or Latino,Y,NA,NA,NA,2/6/2025,NA,NA,NA,NA,12,Married,NA,NA,MCI,NA,NA,NA,NA,6.33,14.33,0.5,0,NA,NA,1,NA,NA,27,26,0,NA,NA,11,10,4,40,44,4,68,ε3/ε3,NA,-4.701122
ADNI,ADNI-005-10288,10288,5,ADNI4,74.9,Years,2,>=65,Female,White,6,Hispanic or Latino,Y,NA,NA,NA,11/7/2024,NA,NA,NA,NA,14,Divorced,NA,NA,CN,Elevated,Elevated,FBP,6MM,2.33,4.33,0,0,NA,NA,0,NA,NA,30,24,0,NA,NA,14,17,1,7.69,50,8,48,ε3/ε3,NA,2.667236
ADNI,ADNI-005-10300,10300,5,ADNI4,57.5,Years,1,<65,Female,Black or African American,3,Not Hispanic or Latino,Y,NA,NA,NA,1/23/2025,NA,NA,NA,NA,16,Married,NA,NA,CN,Non Elevated,Non Elevated,FBP,6MM,3,5,0,0,NA,NA,0,NA,NA,30,25,0,NA,NA,13,13,6,54.55,46,4,58,NA,NA,1.925583
ADNI,ADNI-005-10301,10301,5,ADNI4,60.7,Years,1,<65,Female,White,6,Hispanic or Latino,Y,NA,NA,NA,1/9/2025,NA,NA,NA,NA,18,Never married,NA,NA,CN,Non Elevated,Non Elevated,FBP,6MM,6.67,9.67,0,0,NA,NA,0,NA,NA,30,26,0,NA,NA,15,14,3,23.08,48,6,51,ε3/ε4,NA,2.287931
ADNI,ADNI-005-10302,10302,5,ADNI4,72.3,Years,2,>=65,Female,White,6,Not Hispanic or Latino,Y,NA,NA,NA,12/12/2024,NA,NA,NA,NA,16,Married,NA,NA,CN,Non Elevated,Non Elevated,FBP,6MM,8.33,19.33,0,0,NA,NA,0,NA,NA,30,27,0,NA,NA,16,17,2,15.38,51,8,104,ε3/ε3,NA,-2.267745
ADNI,ADNI-005-10421,10421,5,ADNI4,74.6,Years,2,>=65,Female,White,6,Hispanic or Latino,Y,NA,NA,NA,2/13/2025,NA,NA,NA,NA,16,Divorced,NA,NA,CN,NA,NA,NA,NA,5.33,11.33,0,0,NA,NA,0,NA,NA,29,27,4,NA,NA,19,19,9,100,42,4,68,ε2/ε3,NA,0.328974
ADNI,ADNI-005-10446,10446,5,ADNI4,85.2,Years,2,>=65,Male,White,6,Hispanic or Latino,Y,NA,NA,NA,2/20/2025,NA,NA,NA,NA,18,Married,NA,NA,MCI,NA,NA,NA,NA,9,19,0.5,0.5,NA,NA,1,NA,NA,28,23,4,NA,NA,10,11,12,100,37,6,80,NA,NA,-5.569313
ADNI,ADNI-005-10646,10646,5,ADNI4,80.9,Years,2,>=65,Male,More than one race,7,Hispanic or Latino,Y,NA,NA,NA,5/28/2025,NA,NA,NA,NA,18,Married,NA,NA,CN,NA,NA,NA,NA,6.67,11.67,0,0,NA,NA,0,NA,NA,28,26,0,NA,NA,10,11,7,53.85,47,8,73,NA,NA,-2.749014
ADNI,ADNI-005-10658,10658,5,ADNI4,83.8,Years,2,>=65,Male,White,6,Not Hispanic or Latino,Y,NA,NA,NA,6/5/2025,NA,NA,NA,NA,14,Married,NA,NA,MCI,NA,NA,NA,NA,16,28,0.5,6,NA,NA,11,NA,NA,26,21,14,NA,NA,6,12,7,100,26,4,56,NA,NA,-7.553472
ADNI,ADNI-005-10805,10805,5,ADNI4,73.2,Years,2,>=65,Male,White,6,Not Hispanic or Latino,Y,NA,NA,NA,6/26/2025,NA,NA,NA,NA,18,Divorced,NA,NA,MCI,NA,NA,NA,NA,9.67,17.67,0.5,0.5,NA,NA,0,NA,NA,29,24,2,NA,NA,11,15,4,40,38,7,104,NA,NA,-3.50978
ADNI,ADNI-005-10835,10835,5,ADNI4,81.5,Years,2,>=65,Male,White,6,Hispanic or Latino,Y,NA,NA,NA,8/14/2025,NA,NA,NA,NA,16,Married,NA,NA,DEM,NA,NA,NA,NA,31.33,44.33,0.5,4,NA,NA,11,NA,NA,20,14,8,NA,NA,0,2,4,100,13,2,300,NA,NA,-18.455791
ADNI,ADNI-006-00033,33,6,ADNI1,83.4,Years,2,>=65,Male,White,6,Not Hispanic or Latino,Y,NA,NA,NA,12/9/2005,NA,NA,NA,NA,20,Married,NA,NA,MCI,NA,NA,NA,NA,17.67,25.67,0.5,2,NA,NA,6,NA,2,29,NA,NA,7,40,0,3,6,100,21,4,NA,ε2/ε3,-5.867862,-7.072711
ADNI,ADNI-006-00037,37,6,ADNI1,61.2,Years,1,<65,Female,White,6,Not Hispanic or Latino,NA,NA,NA,NA,NA,NA,NA,NA,NA,NA,NA,NA,NA,NA,NA,NA,NA,NA,NA,NA,NA,NA,NA,NA,NA,NA,NA,NA,NA,NA,NA,NA,NA,NA,NA,NA,NA,NA,NA,ε3/ε4,NA,NA
ADNI,ADNI-006-00048,48,6,ADNI1,78.3,Years,2,>=65,Male,Asian,2,Not Hispanic or Latino,Y,NA,NA,NA,12/19/2005,NA,NA,NA,NA,14,Married,NA,NA,CN,NA,NA,NA,NA,3.33,5.33,0,0,NA,NA,0,NA,0,29,NA,NA,0,65,10,10,2,16.67,47,3,70,ε4/ε4,1.523313,-0.237661
ADNI,ADNI-006-00156,156,6,ADNI1,74.1,Years,2,>=65,Male,White,6,Not Hispanic or Latino,Y,NA,NA,NA,2/16/2006,8/9/2021,NA,NA,NA,17,Married,NA,NA,CN,NA,NA,NA,NA,6.67,8.67,0,0,NA,NA,0,NA,0,30,NA,NA,0,51,15,15,6,50,53,6,55,ε3/ε3,2.432427,2.625897
ADNI,ADNI-006-00204,204,6,ADNI1,71.2,Years,2,>=65,Female,White,6,Not Hispanic or Latino,Y,NA,NA,NA,2/23/2006,NA,NA,NA,NA,16,Divorced,NA,NA,MCI,NA,NA,NA,NA,10.33,18.33,0.5,1.5,NA,NA,3,NA,2,25,NA,NA,4,38,2,4,6,100,24,3,85,ε3/ε3,-9.414025,-8.99837
ADNI,ADNI-006-00292,292,6,ADNI1,76.4,Years,2,>=65,Male,Asian,2,Not Hispanic or Latino,Y,NA,NA,NA,4/12/2006,NA,NA,NA,NA,16,Married,NA,NA,MCI,NA,NA,NA,NA,19.67,29.67,0.5,2,NA,NA,4,NA,0,24,NA,NA,0,42,0,4,5,100,20,2,90,ε3/ε3,-11.484369,-11.599422
ADNI,ADNI-006-00341,341,6,ADNI1,74,Years,2,>=65,Male,White,6,Not Hispanic or Latino,Y,NA,NA,NA,4/26/2006,NA,NA,NA,NA,16,Married,NA,NA,DEM,NA,NA,NA,NA,19.67,30.67,0.5,4,NA,NA,15,NA,2,25,NA,NA,8,46,0,2,3,75,20,1,95,ε4/ε4,-10.76131,-11.399656
ADNI,ADNI-006-00439,439,6,ADNI1,80.9,Years,2,>=65,Female,White,6,Not Hispanic or Latino,NA,NA,NA,NA,NA,NA,NA,NA,NA,NA,NA,NA,NA,NA,NA,NA,NA,NA,NA,NA,NA,NA,NA,NA,NA,NA,NA,NA,NA,NA,NA,NA,NA,NA,NA,NA,NA,NA,NA,NA,NA,NA
ADNI,ADNI-006-00490,490,6,ADNI1,73.2,Years,2,>=65,Male,White,6,Not Hispanic or Latino,NA,NA,NA,NA,NA,NA,NA,NA,NA,NA,NA,NA,NA,NA,NA,NA,NA,NA,NA,NA,NA,NA,NA,NA,NA,NA,NA,NA,NA,NA,NA,NA,NA,NA,NA,NA,NA,NA,NA,NA,NA,NA
ADNI,ADNI-006-00527,527,6,ADNI1,65.1,Years,2,>=65,Male,White,6,Not Hispanic or Latino,NA,NA,NA,NA,NA,NA,NA,NA,NA,NA,NA,NA,NA,NA,NA,NA,NA,NA,NA,NA,NA,NA,NA,NA,NA,NA,NA,NA,NA,NA,NA,NA,NA,NA,NA,NA,NA,NA,NA,NA,NA,NA
ADNI,ADNI-006-00555,555,6,ADNI1,76.6,Years,2,>=65,Male,White,6,Not Hispanic or Latino,Y,Yes,NA,NA,11/30/2006,7/23/2023,NA,6/30/2023,M,16,Married,NA,NA,CN,NA,NA,NA,NA,10,16,0,0,NA,NA,0,NA,0,28,NA,NA,0,46,14,17,7,58.33,38,8,64,ε3/ε4,-2.124119,-1.806043
ADNI,ADNI-006-00612,612,6,ADNI1,77.8,Years,2,>=65,Male,White,6,Not Hispanic or Latino,NA,NA,NA,NA,NA,NA,NA,NA,NA,NA,NA,NA,NA,NA,NA,NA,NA,NA,NA,NA,NA,NA,NA,NA,NA,NA,NA,NA,NA,NA,NA,NA,NA,NA,NA,NA,NA,NA,NA,ε3/ε3,NA,NA
ADNI,ADNI-006-00894,894,6,ADNI1,78.2,Years,2,>=65,Male,White,6,Not Hispanic or Latino,NA,NA,NA,NA,NA,NA,NA,NA,NA,NA,NA,NA,NA,NA,NA,NA,NA,NA,NA,NA,NA,NA,NA,NA,NA,NA,NA,NA,NA,NA,NA,NA,NA,NA,NA,NA,NA,NA,NA,NA,NA,NA
ADNI,ADNI-006-00900,900,6,ADNI1,NA,Years,NA,NA,NA,NA,NA,NA,NA,NA,NA,NA,NA,NA,NA,NA,NA,NA,NA,NA,NA,NA,NA,NA,NA,NA,NA,NA,NA,NA,NA,NA,NA,NA,NA,NA,NA,NA,NA,NA,NA,NA,NA,NA,NA,NA,NA,NA,NA,NA
ADNI,ADNI-006-00960,960,6,ADNI1,77,Years,2,>=65,Female,More than one race,7,Hispanic or Latino,NA,NA,NA,NA,NA,NA,NA,NA,NA,NA,NA,NA,NA,NA,NA,NA,NA,NA,NA,NA,NA,NA,NA,NA,NA,NA,NA,NA,NA,NA,NA,NA,NA,NA,NA,NA,NA,NA,NA,ε3/ε4,NA,NA
ADNI,ADNI-006-00997,997,6,ADNI1,80.5,Years,2,>=65,Female,White,6,Not Hispanic or Latino,Y,NA,NA,NA,1/4/2007,NA,NA,NA,NA,20,Married,NA,NA,MCI,NA,NA,NA,NA,11,23,0.5,5,NA,NA,8,NA,1,24,NA,NA,2,31,0,3,6,100,31,1,123,ε3/ε3,-13.082384,-12.878038
ADNI,ADNI-006-00998,998,6,ADNI1,NA,Years,NA,NA,NA,NA,NA,NA,NA,NA,NA,NA,NA,NA,NA,NA,NA,NA,NA,NA,NA,NA,NA,NA,NA,NA,NA,NA,NA,NA,NA,NA,NA,NA,NA,NA,NA,NA,NA,NA,NA,NA,NA,NA,NA,NA,NA,NA,NA,NA
ADNI,ADNI-006-02208,2208,6,ADNIGO,68.9,Years,2,>=65,Male,White,6,Not Hispanic or Latino,Y,NA,NA,NA,12/8/2010,NA,NA,NA,NA,16,Married,NA,NA,MCI,NA,NA,NA,NA,9.33,12.33,0.5,1,NA,NA,1,NA,2,27,NA,NA,2,NA,9,11,2,18.18,34,8,121,ε3/ε4,NA,-4.0726
ADNI,ADNI-006-02227,2227,6,ADNIGO,68,Years,2,>=65,Male,White,6,Not Hispanic or Latino,NA,NA,NA,NA,NA,NA,NA,NA,NA,NA,NA,NA,NA,NA,NA,NA,NA,NA,NA,NA,NA,NA,NA,NA,NA,NA,NA,NA,NA,NA,NA,NA,NA,NA,NA,NA,NA,NA,NA,NA,NA,NA
ADNI,ADNI-006-02236,2236,6,ADNIGO,86.9,Years,2,>=65,Female,White,6,Not Hispanic or Latino,NA,NA,NA,NA,NA,NA,NA,NA,NA,NA,NA,NA,NA,NA,NA,NA,NA,NA,NA,NA,NA,NA,NA,NA,NA,NA,NA,NA,NA,NA,NA,NA,NA,NA,NA,NA,NA,NA,NA,NA,NA,NA
ADNI,ADNI-006-02364,2364,6,ADNIGO,72.8,Years,2,>=65,Male,White,6,Not Hispanic or Latino,NA,NA,NA,NA,NA,NA,NA,NA,NA,NA,NA,NA,NA,NA,NA,NA,NA,NA,NA,NA,NA,NA,NA,NA,NA,NA,NA,NA,NA,NA,NA,NA,NA,NA,NA,NA,NA,NA,NA,NA,NA,NA
ADNI,ADNI-006-02381,2381,6,ADNIGO,69.2,Years,2,>=65,Male,White,6,Not Hispanic or Latino,Y,NA,NA,NA,5/31/2011,NA,NA,NA,NA,16,Married,NA,NA,MCI,NA,NA,NA,NA,9,15,0.5,2.5,NA,NA,3,NA,1,28,NA,NA,5,NA,9,10,4,40,34,7,64,ε4/ε4,NA,-3.236851
ADNI,ADNI-006-04324,4324,6,ADNI2,62.9,Years,1,<65,Female,White,6,Not Hispanic or Latino,Y,NA,NA,NA,11/15/2011,NA,NA,NA,NA,14,Married,NA,NA,MCI,NA,NA,NA,NA,13,20,0.5,4.5,NA,NA,15,NA,4,27,NA,17,NA,NA,1,8,4,80,21,2,85,ε2/ε4,NA,-7.583177
ADNI,ADNI-006-04330,4330,6,ADNI2,63.8,Years,1,<65,Female,White,6,Not Hispanic or Latino,NA,NA,NA,NA,NA,NA,NA,NA,NA,NA,NA,NA,NA,NA,NA,NA,NA,NA,NA,NA,NA,NA,NA,NA,NA,NA,NA,NA,NA,NA,NA,NA,NA,NA,NA,NA,NA,NA,NA,NA,NA,NA
ADNI,ADNI-006-04337,4337,6,ADNI2,72,Years,2,>=65,Male,White,6,Not Hispanic or Latino,Y,Yes,NA,NA,11/22/2011,6/30/2013,M,6/30/2013,M,12,Widowed,NA,NA,CN,NA,NA,NA,NA,8.67,14.67,0,0,NA,NA,1,NA,1,26,NA,6,NA,NA,11,14,8,72.73,40,7,80,ε3/ε3,NA,-3.866159
ADNI,ADNI-006-04358,4358,6,ADNI2,88.4,Years,2,>=65,Male,White,6,Not Hispanic or Latino,NA,NA,NA,NA,NA,NA,NA,NA,NA,NA,NA,NA,NA,NA,NA,NA,NA,NA,NA,NA,NA,NA,NA,NA,NA,NA,NA,NA,NA,NA,NA,NA,NA,NA,NA,NA,NA,NA,NA,NA,NA,NA
ADNI,ADNI-006-04359,4359,6,ADNI2,76.7,Years,2,>=65,Male,White,6,Not Hispanic or Latino,Y,NA,NA,NA,1/9/2012,NA,NA,NA,NA,16,Married,NA,NA,MCI,NA,NA,NA,NA,9.67,13.67,0.5,3,NA,NA,0,NA,1,30,NA,4,NA,NA,5,4,5,45.45,37,8,78,ε3/ε4,NA,-2.119101
ADNI,ADNI-006-04388,4388,6,ADNI2,66.9,Years,2,>=65,Male,White,6,Not Hispanic or Latino,Y,NA,NA,NA,1/12/2012,NA,NA,NA,NA,18,Married,NA,NA,CN,NA,NA,NA,NA,4.33,6.33,0,0.5,NA,NA,0,NA,2,29,NA,9,NA,NA,16,16,0,0,57,9,86,ε4/ε4,NA,1.500593
ADNI,ADNI-006-04487,4487,6,ADNI2,86.1,Years,2,>=65,Female,White,6,Not Hispanic or Latino,NA,NA,NA,NA,NA,NA,NA,NA,NA,NA,NA,NA,NA,NA,NA,NA,NA,NA,NA,NA,NA,NA,NA,NA,NA,NA,NA,NA,NA,NA,NA,NA,NA,NA,NA,NA,NA,NA,NA,NA,NA,NA
ADNI,ADNI-006-04493,4493,6,ADNI2,57.1,Years,1,<65,Male,White,6,Not Hispanic or Latino,NA,NA,NA,NA,NA,NA,NA,NA,NA,NA,NA,NA,NA,NA,NA,NA,NA,NA,NA,NA,NA,NA,NA,NA,NA,NA,NA,NA,NA,NA,NA,NA,NA,NA,NA,NA,NA,NA,NA,NA,NA,NA
ADNI,ADNI-006-04530,4530,6,ADNI2,75.9,Years,2,>=65,Male,White,6,Not Hispanic or Latino,Y,NA,NA,NA,2/22/2012,NA,NA,NA,NA,18,Married,NA,NA,MCI,NA,NA,NA,NA,10,16,0.5,2.5,NA,NA,2,NA,1,30,NA,3,NA,NA,10,11,2,20,32,6,286,ε3/ε4,NA,-4.371968
ADNI,ADNI-006-04543,4543,6,ADNI2,70.2,Years,2,>=65,Female,White,6,Not Hispanic or Latino,Y,NA,NA,NA,3/8/2012,NA,NA,NA,NA,18,Married,NA,NA,MCI,NA,NA,NA,NA,11.33,17.33,0.5,0.5,NA,NA,0,NA,0,29,NA,0,NA,NA,8,9,7,58.33,51,4,53,ε3/ε3,NA,-2.217613
ADNI,ADNI-006-04564,4564,6,ADNI2,64.9,Years,1,<65,Female,White,6,Not Hispanic or Latino,Y,NA,NA,NA,3/20/2012,NA,NA,NA,NA,12,Married,NA,NA,MCI,NA,NA,NA,NA,6.67,11.67,0.5,3,NA,NA,8,NA,1,27,NA,15,NA,NA,3,6,10,100,41,6,104,ε3/ε4,NA,-6.460978
ADNI,ADNI-006-04612,4612,6,ADNI2,68.5,Years,2,>=65,Female,White,6,Not Hispanic or Latino,Y,NA,NA,NA,4/10/2012,NA,NA,NA,NA,18,Divorced,NA,NA,CN,NA,NA,NA,NA,4.33,6.33,0,0,NA,NA,0,NA,3,30,NA,0,NA,NA,14,15,-1,-9.09,53,5,87,ε3/ε4,NA,1.231193
ADNI,ADNI-006-04741,4741,6,ADNI2,61.7,Years,1,<65,Male,White,6,Not Hispanic or Latino,Y,NA,NA,NA,6/27/2012,NA,NA,NA,NA,16,Married,NA,NA,MCI,NA,NA,NA,NA,11,18,0.5,3.5,NA,NA,3,NA,2,29,NA,3,NA,NA,8,14,8,66.67,33,8,84,ε3/ε3,NA,-3.850006
ADNI,ADNI-006-04814,4814,6,ADNI2,69.3,Years,2,>=65,Female,White,6,Not Hispanic or Latino,Y,NA,NA,NA,7/26/2012,NA,NA,NA,NA,18,Married,NA,NA,MCI,NA,NA,NA,NA,5,9,0.5,1.5,NA,NA,0,NA,2,30,NA,3,NA,NA,9,14,6,46.15,54,6,65,ε3/ε3,NA,-0.533492
ADNI,ADNI-006-04903,4903,6,ADNI2,77.3,Years,2,>=65,Female,White,6,Not Hispanic or Latino,Y,Yes,NA,NA,10/9/2012,6/30/2015,M,6/30/2015,M,12,Married,NA,NA,MCI,NA,NA,NA,NA,9.33,19.33,0.5,2,NA,NA,0,NA,2,28,NA,0,NA,NA,3,6,3,42.86,29,3,100,ε3/ε4,NA,-7.59394
ADNI,ADNI-006-04958,4958,6,ADNI2,69.5,Years,2,>=65,Male,White,6,Not Hispanic or Latino,Y,NA,NA,NA,10/11/2012,NA,NA,NA,NA,20,Married,NA,NA,MCI,NA,NA,NA,NA,13.67,18.67,0.5,3,NA,NA,6,NA,3,28,NA,22,NA,NA,11,15,4,40,22,10,101,ε3/ε4,NA,-3.249913
ADNI,ADNI-006-05000,5000,6,ADNI2,76.7,Years,2,>=65,Male,White,6,Not Hispanic or Latino,Y,NA,NA,NA,11/19/2012,NA,NA,NA,NA,18,Married,NA,NA,MCI,NA,NA,NA,NA,14,21,0.5,1.5,NA,NA,0,NA,0,26,NA,3,NA,NA,11,10,6,100,28,2,300,ε3/ε4,NA,-7.605328
ADNI,ADNI-006-05027,5027,6,ADNI2,75.6,Years,2,>=65,Male,White,6,Not Hispanic or Latino,Y,NA,NA,NA,1/10/2013,NA,NA,NA,NA,18,Married,NA,NA,DEM,NA,NA,NA,NA,16,27,0.5,4,NA,NA,11,NA,1,22,NA,2,NA,NA,0,4,4,100,18,2,243,ε3/ε3,NA,-16.239531
ADNI,ADNI-006-05037,5037,6,ADNI2,67.4,Years,2,>=65,Male,Black or African American,3,Not Hispanic or Latino,Y,NA,NA,NA,1/31/2013,NA,NA,NA,NA,16,Married,NA,NA,DEM,NA,NA,NA,NA,23,35,1,5,NA,NA,14,NA,1,24,NA,14,NA,NA,0,5,5,100,25,2,80,ε3/ε4,NA,-11.833637
ADNI,ADNI-006-05125,5125,6,ADNI2,65.2,Years,2,>=65,Female,White,6,Not Hispanic or Latino,Y,NA,NA,NA,4/11/2013,NA,NA,NA,NA,12,Married,NA,NA,CN,NA,NA,NA,NA,8.67,11.67,0,0,NA,NA,0,NA,3,29,NA,0,NA,NA,8,12,5,45.45,44,7,68,ε3/ε3,NA,-1.259629
ADNI,ADNI-006-05147,5147,6,ADNI2,76.5,Years,2,>=65,Male,White,6,Not Hispanic or Latino,Y,NA,NA,NA,5/2/2013,NA,NA,NA,NA,20,Married,NA,NA,CN,NA,NA,NA,NA,8,14,0,0,NA,NA,0,NA,1,30,NA,0,NA,NA,14,14,8,66.67,41,6,80,ε3/ε3,NA,-0.644415
ADNI,ADNI-006-05161,5161,6,ADNI2,74.8,Years,2,>=65,Female,White,6,Not Hispanic or Latino,NA,NA,NA,NA,NA,NA,NA,NA,NA,NA,NA,NA,NA,NA,NA,NA,NA,NA,NA,NA,NA,NA,NA,NA,NA,NA,NA,NA,NA,NA,NA,NA,NA,NA,NA,NA,NA,NA,NA,NA,NA,NA
ADNI,ADNI-006-05176,5176,6,ADNI2,65.7,Years,2,>=65,Female,White,6,Not Hispanic or Latino,Y,NA,NA,NA,6/11/2013,NA,NA,NA,NA,18,Married,NA,NA,CN,NA,NA,NA,NA,4.67,8.67,0,0,NA,NA,0,NA,1,29,NA,5,NA,NA,17,16,-2,-33.33,33,2,63,ε3/ε4,NA,0.980594
ADNI,ADNI-006-05224,5224,6,ADNI2,78,Years,2,>=65,Male,White,6,Not Hispanic or Latino,Y,NA,NA,NA,7/25/2013,NA,NA,NA,NA,20,Married,NA,NA,DEM,NA,NA,NA,NA,18.33,29.33,1,5,NA,NA,12,NA,0,25,NA,6,NA,NA,0,9,5,100,28,1,93,ε3/ε3,NA,-11.34802
ADNI,ADNI-006-05252,5252,6,ADNI2,56.6,Years,1,<65,Male,White,6,Hispanic or Latino,Y,NA,NA,NA,8/14/2013,NA,NA,NA,NA,14,Married,NA,NA,DEM,NA,NA,NA,NA,17,26,1,8,NA,NA,19,NA,2,25,NA,28,NA,NA,4,9,5,83.33,21,3,300,ε3/ε3,NA,-11.498585
ADNI,ADNI-006-06149,6149,6,ADNI3,65.4,Years,2,>=65,Female,Unknown,999,Not Hispanic or Latino,NA,NA,NA,NA,NA,12/14/2017,NA,NA,NA,NA,NA,NA,NA,NA,NA,NA,NA,NA,NA,NA,NA,NA,NA,NA,NA,NA,NA,NA,NA,NA,NA,NA,NA,NA,NA,NA,NA,NA,NA,NA,NA,NA
ADNI,ADNI-006-06163,6163,6,ADNI3,68.2,Years,2,>=65,Male,White,6,Not Hispanic or Latino,Y,NA,NA,NA,2/27/2018,1/28/2020,NA,NA,NA,15,Married,NA,NA,CN,NA,NA,NA,NA,7,14,0,0,1.153846154,1,0,60,NA,30,22,0,NA,NA,16,6,4,57.14,27,4,93,ε3/ε3,NA,-0.437152
ADNI,ADNI-006-06212,6212,6,ADNI3,71.4,Years,2,>=65,Female,White,6,Not Hispanic or Latino,Y,NA,NA,NA,3/12/2018,NA,NA,NA,NA,18,Married,NA,NA,CN,NA,NA,NA,NA,5,9,0,0,1.769230769,1.461538462,0,66,NA,30,30,0,NA,NA,12,12,6,54.55,39,6,61,ε3/ε3,NA,0.998055
ADNI,ADNI-006-06286,6286,6,ADNI3,70.8,Years,2,>=65,Female,White,6,Not Hispanic or Latino,NA,NA,NA,NA,NA,5/15/2018,NA,NA,NA,NA,NA,NA,NA,NA,NA,NA,NA,NA,NA,NA,NA,NA,NA,NA,NA,NA,NA,NA,NA,NA,NA,NA,NA,NA,NA,NA,NA,NA,NA,NA,NA,NA
ADNI,ADNI-006-06402,6402,6,ADNI3,79.7,Years,2,>=65,Male,White,6,Not Hispanic or Latino,Y,NA,NA,NA,7/12/2018,NA,NA,NA,NA,16,Married,NA,NA,MCI,NA,NA,NA,NA,13,19,0.5,1,1,1.153846154,0,66,NA,28,22,0,NA,NA,5,7,6,100,18,2,85,ε3/ε3,NA,-4.548405
ADNI,ADNI-006-10310,10310,6,ADNI4,58.6,Years,1,<65,Male,Black or African American,3,Not Hispanic or Latino,NA,NA,NA,NA,NA,10/22/2024,NA,NA,NA,NA,NA,NA,NA,NA,NA,NA,NA,NA,NA,NA,NA,NA,NA,NA,NA,NA,NA,NA,NA,NA,NA,NA,NA,NA,NA,NA,NA,NA,NA,NA,NA,NA
ADNI,ADNI-006-10504,10504,6,ADNI4,78.6,Years,2,>=65,Male,White,6,Not Hispanic or Latino,Y,NA,NA,NA,3/19/2025,NA,NA,NA,NA,18,Married,NA,NA,MCI,NA,NA,NA,NA,6.67,10.67,0.5,2,NA,NA,3,NA,NA,28,25,12,NA,NA,7,8,4,33.33,42,9,56,ε3/ε4,NA,-2.447609
ADNI,ADNI-007-02090,2090,7,ADNIGO,80.2,Years,2,>=65,Male,White,6,Not Hispanic or Latino,NA,NA,NA,NA,NA,NA,NA,NA,NA,NA,NA,NA,NA,NA,NA,NA,NA,NA,NA,NA,NA,NA,NA,NA,NA,NA,NA,NA,NA,NA,NA,NA,NA,NA,NA,NA,NA,NA,NA,NA,NA,NA
ADNI,ADNI-007-02144,2144,7,ADNIGO,67.2,Years,2,>=65,Male,White,6,Not Hispanic or Latino,NA,NA,NA,NA,NA,NA,NA,NA,NA,NA,NA,NA,NA,NA,NA,NA,NA,NA,NA,NA,NA,NA,NA,NA,NA,NA,NA,NA,NA,NA,NA,NA,NA,NA,NA,NA,NA,NA,NA,NA,NA,NA
ADNI,ADNI-007-02157,2157,7,ADNIGO,62.7,Years,1,<65,Female,White,6,Not Hispanic or Latino,NA,NA,NA,NA,NA,NA,NA,NA,NA,NA,NA,NA,NA,NA,NA,NA,NA,NA,NA,NA,NA,NA,NA,NA,NA,NA,NA,NA,NA,NA,NA,NA,NA,NA,NA,NA,NA,NA,NA,NA,NA,NA
ADNI,ADNI-007-02256,2256,7,ADNIGO,57.5,Years,1,<65,Male,White,6,Not Hispanic or Latino,NA,NA,NA,NA,NA,NA,NA,NA,NA,NA,NA,NA,NA,NA,NA,NA,NA,NA,NA,NA,NA,NA,NA,NA,NA,NA,NA,NA,NA,NA,NA,NA,NA,NA,NA,NA,NA,NA,NA,NA,NA,NA
ADNI,ADNI-007-02257,2257,7,ADNIGO,61.1,Years,1,<65,Female,White,6,Not Hispanic or Latino,NA,NA,NA,NA,NA,NA,NA,NA,NA,NA,NA,NA,NA,NA,NA,NA,NA,NA,NA,NA,NA,NA,NA,NA,NA,NA,NA,NA,NA,NA,NA,NA,NA,NA,NA,NA,NA,NA,NA,NA,NA,NA
ADNI,ADNI-007-02272,2272,7,ADNIGO,87.6,Years,2,>=65,Female,White,6,Not Hispanic or Latino,NA,NA,NA,NA,NA,NA,NA,NA,NA,NA,NA,NA,NA,NA,NA,NA,NA,NA,NA,NA,NA,NA,NA,NA,NA,NA,NA,NA,NA,NA,NA,NA,NA,NA,NA,NA,NA,NA,NA,NA,NA,NA
ADNI,ADNI-007-02317,2317,7,ADNIGO,61.5,Years,1,<65,Male,White,6,Not Hispanic or Latino,NA,NA,NA,NA,NA,NA,NA,NA,NA,NA,NA,NA,NA,NA,NA,NA,NA,NA,NA,NA,NA,NA,NA,NA,NA,NA,NA,NA,NA,NA,NA,NA,NA,NA,NA,NA,NA,NA,NA,NA,NA,NA
ADNI,ADNI-007-02365,2365,7,ADNIGO,82.4,Years,2,>=65,Male,Black or African American,3,Not Hispanic or Latino,NA,NA,NA,NA,NA,NA,NA,NA,NA,NA,NA,NA,NA,NA,NA,NA,NA,NA,NA,NA,NA,NA,NA,NA,NA,NA,NA,NA,NA,NA,NA,NA,NA,NA,NA,NA,NA,NA,NA,NA,NA,NA
ADNI,ADNI-007-02366,2366,7,ADNIGO,NA,Years,NA,NA,NA,NA,NA,NA,NA,NA,NA,NA,NA,NA,NA,NA,NA,NA,NA,NA,NA,NA,NA,NA,NA,NA,NA,NA,NA,NA,NA,NA,NA,NA,NA,NA,NA,NA,NA,NA,NA,NA,NA,NA,NA,NA,NA,NA,NA,NA
ADNI,ADNI-007-04123,4123,7,ADNI2,77.4,Years,2,>=65,Female,White,6,Not Hispanic or Latino,NA,NA,NA,NA,NA,NA,NA,NA,NA,NA,NA,NA,NA,NA,NA,NA,NA,NA,NA,NA,NA,NA,NA,NA,NA,NA,NA,NA,NA,NA,NA,NA,NA,NA,NA,NA,NA,NA,NA,NA,NA,NA
ADNI,ADNI-007-04135,4135,7,ADNI2,56.6,Years,1,<65,Female,White,6,Not Hispanic or Latino,NA,NA,NA,NA,NA,NA,NA,NA,NA,NA,NA,NA,NA,NA,NA,NA,NA,NA,NA,NA,NA,NA,NA,NA,NA,NA,NA,NA,NA,NA,NA,NA,NA,NA,NA,NA,NA,NA,NA,NA,NA,NA
ADNI,ADNI-007-04193,4193,7,ADNI2,NA,Years,NA,NA,NA,NA,NA,NA,NA,NA,NA,NA,NA,NA,NA,NA,NA,NA,NA,NA,NA,NA,NA,NA,NA,NA,NA,NA,NA,NA,NA,NA,NA,NA,NA,NA,NA,NA,NA,NA,NA,NA,NA,NA,NA,NA,NA,NA,NA,NA
ADNI,ADNI-007-04204,4204,7,ADNI2,60.8,Years,1,<65,Female,White,6,Not Hispanic or Latino,NA,NA,NA,NA,NA,NA,NA,NA,NA,NA,NA,NA,NA,NA,NA,NA,NA,NA,NA,NA,NA,NA,NA,NA,NA,NA,NA,NA,NA,NA,NA,NA,NA,NA,NA,NA,NA,NA,NA,NA,NA,NA
ADNI,ADNI-007-04239,4239,7,ADNI2,56.7,Years,1,<65,Female,Black or African American,3,Hispanic or Latino,NA,NA,NA,NA,NA,NA,NA,NA,NA,NA,NA,NA,NA,NA,NA,NA,NA,NA,NA,NA,NA,NA,NA,NA,NA,NA,NA,NA,NA,NA,NA,NA,NA,NA,NA,NA,NA,NA,NA,NA,NA,NA
ADNI,ADNI-007-04265,4265,7,ADNI2,74,Years,2,>=65,Female,White,6,Not Hispanic or Latino,NA,NA,NA,NA,NA,NA,NA,NA,NA,NA,NA,NA,NA,NA,NA,NA,NA,NA,NA,NA,NA,NA,NA,NA,NA,NA,NA,NA,NA,NA,NA,NA,NA,NA,NA,NA,NA,NA,NA,NA,NA,NA
ADNI,ADNI-007-04289,4289,7,ADNI2,68.2,Years,2,>=65,Male,White,6,Not Hispanic or Latino,NA,NA,NA,NA,NA,NA,NA,NA,NA,NA,NA,NA,NA,NA,NA,NA,NA,NA,NA,NA,NA,NA,NA,NA,NA,NA,NA,NA,NA,NA,NA,NA,NA,NA,NA,NA,NA,NA,NA,NA,NA,NA
ADNI,ADNI-007-04345,4345,7,ADNI2,69.8,Years,2,>=65,Male,White,6,Not Hispanic or Latino,Y,NA,NA,NA,3/9/2012,NA,NA,NA,NA,20,Married,NA,NA,CN,Non Elevated,Non Elevated,FBP,6MM,5.33,9.33,0,0,NA,NA,0,NA,1,30,NA,0,NA,NA,14,15,2,15.38,43,8,58,ε2/ε3,NA,1.69202
ADNI,ADNI-007-04347,4347,7,ADNI2,83,Years,2,>=65,Male,Black or African American,3,Not Hispanic or Latino,NA,NA,NA,NA,NA,NA,NA,NA,NA,NA,NA,NA,NA,NA,NA,NA,NA,NA,NA,NA,NA,NA,NA,NA,NA,NA,NA,NA,NA,NA,NA,NA,NA,NA,NA,NA,NA,NA,NA,NA,NA,NA
ADNI,ADNI-007-04361,4361,7,ADNI2,77.8,Years,2,>=65,Female,White,6,Not Hispanic or Latino,NA,NA,NA,NA,NA,NA,NA,NA,NA,NA,NA,NA,NA,NA,NA,NA,NA,NA,NA,NA,NA,NA,NA,NA,NA,NA,NA,NA,NA,NA,NA,NA,NA,NA,NA,NA,NA,NA,NA,NA,NA,NA
ADNI,ADNI-007-04442,4442,7,ADNI2,74.3,Years,2,>=65,Female,Black or African American,3,Not Hispanic or Latino,Y,Yes,NA,NA,4/18/2012,6/30/2013,M,6/30/2013,M,17,Never married,NA,NA,CN,NA,NA,NA,NA,4.33,8.33,0,0,NA,NA,0,NA,0,30,NA,1,NA,NA,18,19,2,15.38,57,6,300,ε2/ε4,NA,-1.16004
ADNI,ADNI-007-04481,4481,7,ADNI2,72,Years,2,>=65,Female,White,6,Not Hispanic or Latino,NA,NA,NA,NA,NA,NA,NA,NA,NA,NA,NA,NA,NA,NA,NA,NA,NA,NA,NA,NA,NA,NA,NA,NA,NA,NA,NA,NA,NA,NA,NA,NA,NA,NA,NA,NA,NA,NA,NA,NA,NA,NA
ADNI,ADNI-007-05163,5163,7,ADNI2,66.5,Years,2,>=65,Male,White,6,Not Hispanic or Latino,NA,NA,NA,NA,NA,NA,NA,NA,NA,NA,NA,NA,NA,NA,NA,NA,NA,NA,NA,NA,NA,NA,NA,NA,NA,NA,NA,NA,NA,NA,NA,NA,NA,NA,NA,NA,NA,NA,NA,NA,NA,NA
ADNI,ADNI-007-06555,6555,7,ADNI3,71.6,Years,2,>=65,Female,Black or African American,3,Not Hispanic or Latino,NA,NA,NA,NA,NA,3/4/2019,NA,NA,NA,NA,NA,NA,NA,NA,NA,NA,NA,NA,NA,NA,NA,NA,NA,NA,NA,NA,NA,NA,NA,NA,NA,NA,NA,NA,NA,NA,NA,NA,NA,NA,NA,NA
ADNI,ADNI-007-06567,6567,7,ADNI3,61,Years,1,<65,Male,White,6,Not Hispanic or Latino,NA,NA,NA,NA,NA,9/14/2018,NA,NA,NA,NA,NA,NA,NA,NA,NA,NA,NA,NA,NA,NA,NA,NA,NA,NA,NA,NA,NA,NA,NA,NA,NA,NA,NA,NA,NA,NA,NA,NA,NA,NA,NA,NA
ADNI,ADNI-007-06748,6748,7,ADNI3,64.2,Years,1,<65,Female,Black or African American,3,Not Hispanic or Latino,Y,NA,NA,NA,7/30/2019,NA,NA,NA,NA,18,Widowed,NA,NA,MCI,Non Elevated,Non Elevated,FBB,6MM,4.33,7.33,0.5,1.5,1.615384615,1.973684211,2,71,NA,30,22,14,NA,NA,8,11,6,75,39,1,126,ε3/ε3,NA,-1.905241
ADNI,ADNI-007-10075,10075,7,ADNI4,62.7,Years,1,<65,Male,White,6,Not Hispanic or Latino,Y,NA,NA,NA,4/15/2024,NA,NA,NA,NA,12,Married,NA,NA,DEM,Elevated,Elevated,FBP,6MM,37,51,1,5,NA,NA,15,NA,NA,19,9,6,NA,NA,1,1,3,100,15,0,120,ε3/ε3,NA,-16.785196
ADNI,ADNI-007-10130,10130,7,ADNI4,67,Years,2,>=65,Male,White,6,Not Hispanic or Latino,NA,NA,NA,NA,NA,1/31/2025,NA,NA,NA,NA,NA,NA,NA,NA,NA,NA,NA,NA,NA,NA,NA,NA,NA,NA,NA,NA,NA,NA,NA,NA,NA,NA,NA,NA,NA,NA,NA,NA,NA,NA,NA,NA
ADNI,ADNI-007-10258,10258,7,ADNI4,55.4,Years,1,<65,Female,White,6,Not Hispanic or Latino,Y,NA,NA,NA,12/18/2024,NA,NA,NA,NA,16,Married,NA,NA,CN,Non Elevated,Non Elevated,FBP,6MM,1.67,1.67,0,0,NA,NA,0,NA,NA,29,29,0,NA,NA,17,16,0,0,53,8,37,ε3/ε3,NA,4.33803
ADNI,ADNI-007-10467,10467,7,ADNI4,60.7,Years,1,<65,Male,White,6,Not Hispanic or Latino,Y,NA,NA,NA,3/25/2025,NA,NA,NA,NA,14,Married,NA,NA,CN,Non Elevated,Non Elevated,FBP,6MM,7.33,13.33,0,0,NA,NA,0,NA,NA,28,25,0,NA,NA,10,9,4,57.14,29,3,74,NA,NA,-3.30166
ADNI,ADNI-008-00097,97,8,ADNI1,72.8,Years,2,>=65,Female,White,6,Not Hispanic or Latino,Y,NA,NA,NA,2/22/2006,NA,NA,NA,NA,14,Never married,NA,NA,CN,NA,NA,NA,NA,1.67,2.67,0,0,NA,NA,0,NA,1,30,NA,NA,1,52,12,15,-1,-7.14,57,10,68,ε2/ε3,2.191694,1.775143
ADNI,ADNI-008-00213,213,8,ADNI1,63,Years,1,<65,Male,White,6,Not Hispanic or Latino,Y,NA,NA,NA,4/10/2006,NA,NA,NA,NA,18,Married,NA,NA,DEM,NA,NA,NA,NA,12.33,21.33,0.5,4,NA,NA,5,NA,2,24,NA,NA,0,17,2,2,4,80,23,2,300,ε2/ε3,-11.283808,-11.882136
ADNI,ADNI-008-00569,569,8,ADNI1,75.8,Years,2,>=65,Female,White,6,Not Hispanic or Latino,NA,NA,NA,NA,NA,NA,NA,NA,NA,NA,NA,NA,NA,NA,NA,NA,NA,NA,NA,NA,NA,NA,NA,NA,NA,NA,NA,NA,NA,NA,NA,NA,NA,NA,NA,NA,NA,NA,NA,NA,NA,NA
ADNI,ADNI-008-00623,623,8,ADNI1,75.8,Years,2,>=65,Female,White,6,Not Hispanic or Latino,NA,NA,NA,NA,NA,NA,NA,NA,NA,NA,NA,NA,NA,NA,NA,NA,NA,NA,NA,NA,NA,NA,NA,NA,NA,NA,NA,NA,NA,NA,NA,NA,NA,NA,NA,NA,NA,NA,NA,ε3/ε4,NA,NA
ADNI,ADNI-008-00651,651,8,ADNI1,79.8,Years,2,>=65,Female,White,6,Not Hispanic or Latino,NA,NA,NA,NA,NA,NA,NA,NA,NA,NA,NA,NA,NA,NA,NA,NA,NA,NA,NA,NA,NA,NA,NA,NA,NA,NA,NA,NA,NA,NA,NA,NA,NA,NA,NA,NA,NA,NA,NA,ε3/ε3,NA,NA
ADNI,ADNI-008-00883,883,8,ADNI1,76.1,Years,2,>=65,Female,White,6,Not Hispanic or Latino,Y,NA,NA,NA,10/24/2006,NA,NA,NA,NA,16,Never married,NA,NA,CN,NA,NA,NA,NA,7.33,13.33,0,0,NA,NA,0,NA,2,29,NA,NA,2,46,13,19,5,38.46,44,7,107,ε3/ε4,-1.039879,-1.9671
ADNI,ADNI-008-00899,899,8,ADNI1,80.1,Years,2,>=65,Female,White,6,Not Hispanic or Latino,Y,NA,NA,NA,10/26/2006,NA,NA,NA,NA,16,Widowed,NA,NA,CN,NA,NA,NA,NA,7.67,12.67,0,0,NA,NA,0,NA,0,30,NA,NA,0,41,16,18,3,33.33,35,5,92,ε3/ε3,0.698876,0.628529
ADNI,ADNI-008-00983,983,8,ADNI1,81.3,Years,2,>=65,Male,White,6,Not Hispanic or Latino,NA,NA,NA,NA,NA,NA,NA,NA,NA,NA,NA,NA,NA,NA,NA,NA,NA,NA,NA,NA,NA,NA,NA,NA,NA,NA,NA,NA,NA,NA,NA,NA,NA,NA,NA,NA,NA,NA,NA,ε3/ε4,NA,NA
ADNI,ADNI-008-01064,1064,8,ADNI1,73.8,Years,2,>=65,Male,White,6,Not Hispanic or Latino,NA,NA,NA,NA,NA,NA,NA,NA,NA,NA,NA,NA,NA,NA,NA,NA,NA,NA,NA,NA,NA,NA,NA,NA,NA,NA,NA,NA,NA,NA,NA,NA,NA,NA,NA,NA,NA,NA,NA,NA,NA,NA
ADNI,ADNI-008-01110,1110,8,ADNI1,77.2,Years,2,>=65,Male,Black or African American,3,Not Hispanic or Latino,NA,NA,NA,NA,NA,NA,NA,NA,NA,NA,NA,NA,NA,NA,NA,NA,NA,NA,NA,NA,NA,NA,NA,NA,NA,NA,NA,NA,NA,NA,NA,NA,NA,NA,NA,NA,NA,NA,NA,ε3/ε4,NA,NA
ADNI,ADNI-008-01266,1266,8,ADNI1,80.6,Years,2,>=65,Male,White,6,Not Hispanic or Latino,NA,NA,NA,NA,NA,NA,NA,NA,NA,NA,NA,NA,NA,NA,NA,NA,NA,NA,NA,NA,NA,NA,NA,NA,NA,NA,NA,NA,NA,NA,NA,NA,NA,NA,NA,NA,NA,NA,NA,ε3/ε3,NA,NA
ADNI,ADNI-008-01288,1288,8,ADNI1,59.9,Years,1,<65,Male,White,6,Not Hispanic or Latino,Y,NA,NA,NA,2/21/2007,NA,NA,NA,NA,20,Married,NA,NA,CN,NA,NA,NA,NA,3.67,5.67,0,0,NA,NA,0,NA,2,30,NA,NA,0,70,15,14,0,0,50,8,39,ε3/ε3,4.294929,3.451132
ADNI,ADNI-008-02046,2046,8,ADNIGO,76.4,Years,2,>=65,Male,White,6,Not Hispanic or Latino,NA,NA,NA,NA,NA,NA,NA,NA,NA,NA,NA,NA,NA,NA,NA,NA,NA,NA,NA,NA,NA,NA,NA,NA,NA,NA,NA,NA,NA,NA,NA,NA,NA,NA,NA,NA,NA,NA,NA,NA,NA,NA
ADNI,ADNI-008-02054,2054,8,ADNIGO,83,Years,2,>=65,Female,White,6,Not Hispanic or Latino,NA,NA,NA,NA,NA,NA,NA,NA,NA,NA,NA,NA,NA,NA,NA,NA,NA,NA,NA,NA,NA,NA,NA,NA,NA,NA,NA,NA,NA,NA,NA,NA,NA,NA,NA,NA,NA,NA,NA,NA,NA,NA
ADNI,ADNI-008-02066,2066,8,ADNIGO,76.1,Years,2,>=65,Female,White,6,Not Hispanic or Latino,NA,NA,NA,NA,NA,NA,NA,NA,NA,NA,NA,NA,NA,NA,NA,NA,NA,NA,NA,NA,NA,NA,NA,NA,NA,NA,NA,NA,NA,NA,NA,NA,NA,NA,NA,NA,NA,NA,NA,NA,NA,NA
ADNI,ADNI-008-02092,2092,8,ADNIGO,72.1,Years,2,>=65,Female,White,6,Not Hispanic or Latino,NA,NA,NA,NA,NA,NA,NA,NA,NA,NA,NA,NA,NA,NA,NA,NA,NA,NA,NA,NA,NA,NA,NA,NA,NA,NA,NA,NA,NA,NA,NA,NA,NA,NA,NA,NA,NA,NA,NA,NA,NA,NA
ADNI,ADNI-008-02120,2120,8,ADNIGO,65.4,Years,2,>=65,Female,White,6,Not Hispanic or Latino,NA,NA,NA,NA,NA,NA,NA,NA,NA,NA,NA,NA,NA,NA,NA,NA,NA,NA,NA,NA,NA,NA,NA,NA,NA,NA,NA,NA,NA,NA,NA,NA,NA,NA,NA,NA,NA,NA,NA,NA,NA,NA
ADNI,ADNI-008-02143,2143,8,ADNIGO,65.9,Years,2,>=65,Female,White,6,Not Hispanic or Latino,NA,NA,NA,NA,NA,NA,NA,NA,NA,NA,NA,NA,NA,NA,NA,NA,NA,NA,NA,NA,NA,NA,NA,NA,NA,NA,NA,NA,NA,NA,NA,NA,NA,NA,NA,NA,NA,NA,NA,NA,NA,NA
ADNI,ADNI-008-02250,2250,8,ADNIGO,71.2,Years,2,>=65,Male,White,6,Not Hispanic or Latino,NA,NA,NA,NA,NA,NA,NA,NA,NA,NA,NA,NA,NA,NA,NA,NA,NA,NA,NA,NA,NA,NA,NA,NA,NA,NA,NA,NA,NA,NA,NA,NA,NA,NA,NA,NA,NA,NA,NA,NA,NA,NA
ADNI,ADNI-008-02253,2253,8,ADNIGO,81.3,Years,2,>=65,Male,White,6,Not Hispanic or Latino,NA,NA,NA,NA,NA,NA,NA,NA,NA,NA,NA,NA,NA,NA,NA,NA,NA,NA,NA,NA,NA,NA,NA,NA,NA,NA,NA,NA,NA,NA,NA,NA,NA,NA,NA,NA,NA,NA,NA,NA,NA,NA
ADNI,ADNI-008-02274,2274,8,ADNIGO,64,Years,1,<65,Male,White,6,Not Hispanic or Latino,Y,NA,NA,NA,2/9/2011,NA,NA,NA,NA,18,Married,NA,NA,MCI,Elevated,Elevated,FBP,6MM,9.33,18.33,0.5,2.5,NA,NA,8,NA,1,30,NA,NA,6,NA,9,12,8,100,34,4,59,ε3/ε4,NA,-2.898356
ADNI,ADNI-008-04045,4045,8,ADNI2,86.8,Years,2,>=65,Male,White,6,Not Hispanic or Latino,NA,NA,NA,NA,NA,NA,NA,NA,NA,NA,NA,NA,NA,NA,NA,NA,NA,NA,NA,NA,NA,NA,NA,NA,NA,NA,NA,NA,NA,NA,NA,NA,NA,NA,NA,NA,NA,NA,NA,NA,NA,NA
ADNI,ADNI-008-04048,4048,8,ADNI2,79.2,Years,2,>=65,Male,White,6,Not Hispanic or Latino,NA,NA,NA,NA,NA,NA,NA,NA,NA,NA,NA,NA,NA,NA,NA,NA,NA,NA,NA,NA,NA,NA,NA,NA,NA,NA,NA,NA,NA,NA,NA,NA,NA,NA,NA,NA,NA,NA,NA,NA,NA,NA
ADNI,ADNI-008-04075,4075,8,ADNI2,73.4,Years,2,>=65,Male,White,6,Not Hispanic or Latino,Y,NA,NA,NA,6/20/2011,NA,NA,NA,NA,16,Married,NA,NA,CN,Non Elevated,Non Elevated,FBP,6MM,7,10,0,0,NA,NA,0,NA,0,29,NA,5,NA,NA,14,14,5,50,40,5,57,ε3/ε4,NA,0.883269
ADNI,ADNI-008-04105,4105,8,ADNI2,70.8,Years,2,>=65,Female,White,6,Not Hispanic or Latino,Y,NA,NA,NA,7/22/2011,NA,NA,NA,NA,18,Married,NA,NA,CN,Non Elevated,Non Elevated,FBP,6MM,3.67,5.67,0,0,NA,NA,0,NA,1,30,NA,0,NA,NA,15,14,5,38.46,39,9,74,ε3/ε3,NA,2.429125
ADNI,ADNI-008-04120,4120,8,ADNI2,81.8,Years,2,>=65,Female,White,6,Not Hispanic or Latino,Y,NA,NA,NA,7/28/2011,NA,NA,NA,NA,17,Divorced,NA,NA,CN,Elevated,Elevated,FBP,6MM,10.33,19.33,0,0,NA,NA,0,NA,0,30,NA,0,NA,NA,11,13,8,80,39,4,162,ε3/ε3,NA,-3.737736
ADNI,ADNI-008-04180,4180,8,ADNI2,76.4,Years,2,>=65,Female,White,6,Not Hispanic or Latino,NA,NA,NA,NA,NA,NA,NA,NA,NA,NA,NA,NA,NA,NA,NA,NA,NA,NA,NA,NA,NA,NA,NA,NA,NA,NA,NA,NA,NA,NA,NA,NA,NA,NA,NA,NA,NA,NA,NA,NA,NA,NA
ADNI,ADNI-008-04222,4222,8,ADNI2,82.3,Years,2,>=65,Female,White,6,Not Hispanic or Latino,Y,NA,NA,NA,9/26/2011,NA,NA,NA,NA,16,Married,NA,NA,CN,Non Elevated,Non Elevated,FBP,6MM,8,13,0,0,NA,NA,0,NA,1,30,NA,0,NA,NA,10,10,3,30,36,6,120,ε3/ε4,NA,-1.733945
ADNI,ADNI-008-04235,4235,8,ADNI2,63.8,Years,1,<65,Male,White,6,Not Hispanic or Latino,Y,NA,NA,NA,10/7/2011,NA,NA,NA,NA,16,Married,NA,NA,MCI,Elevated,Elevated,FBP,6MM,8.67,13.67,0.5,0.5,NA,NA,1,NA,2,27,NA,0,NA,NA,5,14,9,100,36,4,45,ε3/ε3,NA,-3.86447
ADNI,ADNI-008-04278,4278,8,ADNI2,75.1,Years,2,>=65,Male,White,6,Not Hispanic or Latino,Y,NA,NA,NA,10/26/2011,NA,NA,NA,NA,14,Married,NA,NA,CN,Elevated,Elevated,FBP,6MM,14.67,23.67,0,0,NA,NA,0,NA,0,27,NA,0,NA,NA,8,9,5,71.43,31,3,149,ε3/ε4,NA,-6.944404
ADNI,ADNI-008-04326,4326,8,ADNI2,82.5,Years,2,>=65,Male,White,6,Not Hispanic or Latino,NA,NA,NA,NA,NA,NA,NA,NA,NA,NA,NA,NA,NA,NA,NA,NA,NA,NA,NA,NA,NA,NA,NA,NA,NA,NA,NA,NA,NA,NA,NA,NA,NA,NA,NA,NA,NA,NA,NA,NA,NA,NA
ADNI,ADNI-008-04355,4355,8,ADNI2,67.3,Years,2,>=65,Female,White,6,Not Hispanic or Latino,NA,NA,NA,NA,NA,NA,NA,NA,NA,NA,NA,NA,NA,NA,NA,NA,NA,NA,NA,NA,NA,NA,NA,NA,NA,NA,NA,NA,NA,NA,NA,NA,NA,NA,NA,NA,NA,NA,NA,NA,NA,NA
ADNI,ADNI-008-04366,4366,8,ADNI2,73.6,Years,2,>=65,Male,White,6,Not Hispanic or Latino,Y,Yes,NA,NA,11/21/2011,6/30/2016,M,6/30/2016,M,16,Married,NA,NA,MCI,Elevated,Elevated,FBP,6MM,25.67,35.67,0.5,1.5,NA,NA,1,NA,1,26,NA,0,NA,NA,1,2,4,100,14,4,85,ε3/ε4,NA,-9.993028
ADNI,ADNI-008-04490,4490,8,ADNI2,69.5,Years,2,>=65,Male,White,6,Not Hispanic or Latino,NA,NA,NA,NA,NA,NA,NA,NA,NA,NA,NA,NA,NA,NA,NA,NA,NA,NA,NA,NA,NA,NA,NA,NA,NA,NA,NA,NA,NA,NA,NA,NA,NA,NA,NA,NA,NA,NA,NA,NA,NA,NA
ADNI,ADNI-008-04519,4519,8,ADNI2,58.7,Years,1,<65,Male,White,6,Not Hispanic or Latino,NA,NA,NA,NA,NA,NA,NA,NA,NA,NA,NA,NA,NA,NA,NA,NA,NA,NA,NA,NA,NA,NA,NA,NA,NA,NA,NA,NA,NA,NA,NA,NA,NA,NA,NA,NA,NA,NA,NA,NA,NA,NA
ADNI,ADNI-008-04547,4547,8,ADNI2,77.4,Years,2,>=65,Male,White,6,Not Hispanic or Latino,Y,NA,NA,NA,3/14/2012,11/22/2018,NA,NA,NA,18,Married,NA,NA,MCI,Elevated,Elevated,FBP,6MM,11,13,0.5,0.5,NA,NA,2,NA,1,30,NA,0,NA,NA,9,12,7,87.5,29,4,66,ε3/ε3,NA,0.469075
ADNI,ADNI-008-04705,4705,8,ADNI2,68.3,Years,2,>=65,Male,White,6,Not Hispanic or Latino,NA,NA,NA,NA,NA,NA,NA,NA,NA,NA,NA,NA,NA,NA,NA,NA,NA,NA,NA,NA,NA,NA,NA,NA,NA,NA,NA,NA,NA,NA,NA,NA,NA,NA,NA,NA,NA,NA,NA,NA,NA,NA
ADNI,ADNI-008-04812,4812,8,ADNI2,80.2,Years,2,>=65,Male,White,6,Not Hispanic or Latino,NA,NA,NA,NA,NA,NA,NA,NA,NA,NA,NA,NA,NA,NA,NA,NA,NA,NA,NA,NA,NA,NA,NA,NA,NA,NA,NA,NA,NA,NA,NA,NA,NA,NA,NA,NA,NA,NA,NA,NA,NA,NA
ADNI,ADNI-008-04827,4827,8,ADNI2,71.1,Years,2,>=65,Male,White,6,Not Hispanic or Latino,Y,Yes,NA,NA,7/19/2012,6/30/2019,M,6/30/2019,M,18,Married,NA,NA,DEM,Elevated,Elevated,FBP,6MM,13.67,23.67,0.5,2.5,NA,NA,5,NA,1,26,NA,13,NA,NA,1,3,6,85.71,23,4,141,ε2/ε4,NA,-10.703238
ADNI,ADNI-008-04845,4845,8,ADNI2,68,Years,2,>=65,Female,White,6,Not Hispanic or Latino,Y,Yes,NA,NA,7/17/2012,6/30/2021,M,6/30/2021,M,20,Married,NA,NA,DEM,Elevated,Elevated,FBP,6MM,26.67,35.67,0.5,4.5,NA,NA,0,NA,0,22,NA,0,NA,NA,0,0,3,100,16,0,300,ε3/ε4,NA,-15.714988
ADNI,ADNI-008-04893,4893,8,ADNI2,68.2,Years,2,>=65,Female,White,6,Not Hispanic or Latino,Y,NA,NA,NA,9/25/2012,5/19/2021,NA,NA,NA,12,Married,NA,NA,MCI,Elevated,Elevated,FBP,6MM,6.33,11.33,0.5,4,NA,NA,2,NA,2,28,NA,1,NA,NA,8,11,4,50,36,3,67,ε3/ε4,NA,-3.11395
ADNI,ADNI-008-04906,4906,8,ADNI2,75.8,Years,2,>=65,Female,White,6,Not Hispanic or Latino,Y,NA,NA,NA,9/5/2012,NA,NA,NA,NA,18,Married,NA,NA,DEM,Elevated,Elevated,FBP,6MM,19.33,29.33,1,5,NA,NA,17,NA,0,24,NA,7,NA,NA,1,4,6,100,25,2,81,ε3/ε3,NA,-11.057845
ADNI,ADNI-008-04912,4912,8,ADNI2,69.2,Years,2,>=65,Female,Asian,2,Not Hispanic or Latino,Y,NA,NA,NA,9/13/2012,NA,NA,NA,NA,18,Married,NA,NA,DEM,Elevated,Elevated,FBP,6MM,21.67,32.67,0.5,3.5,NA,NA,7,NA,0,21,NA,12,NA,NA,1,4,6,100,26,1,92,ε4/ε4,NA,-14.438336
ADNI,ADNI-008-04949,4949,8,ADNI2,78.1,Years,2,>=65,Female,White,6,Not Hispanic or Latino,Y,NA,NA,NA,10/10/2012,NA,NA,NA,NA,18,Never married,NA,NA,DEM,Elevated,Elevated,FBP,6MM,12.33,23.33,0.5,4,NA,NA,16,NA,5,25,NA,2,NA,NA,0,9,8,100,38,2,94,ε4/ε4,NA,-11.373974
ADNI,ADNI-008-06130,6130,8,ADNI3,84.6,Years,2,>=65,Female,White,6,Not Hispanic or Latino,NA,NA,NA,NA,NA,12/12/2017,NA,NA,NA,NA,NA,NA,NA,NA,NA,NA,NA,NA,NA,NA,NA,NA,NA,NA,NA,NA,NA,NA,NA,NA,NA,NA,NA,NA,NA,NA,NA,NA,NA,NA,NA,NA
ADNI,ADNI-008-06303,6303,8,ADNI3,70.4,Years,2,>=65,Male,White,6,Not Hispanic or Latino,Y,NA,NA,NA,4/20/2018,NA,NA,NA,NA,16,Married,NA,NA,DEM,Elevated,Elevated,FBP,6MM,11.67,21.67,1,5,2.025641026,2.324324324,9,58,NA,23,18,1,NA,NA,0,7,6,100,21,5,111,ε3/ε3,NA,-12.439633
ADNI,ADNI-008-06367,6367,8,ADNI3,81.3,Years,2,>=65,Female,White,6,Not Hispanic or Latino,Y,NA,NA,NA,5/23/2018,NA,NA,NA,NA,20,Divorced,NA,NA,CN,Elevated,Elevated,FBP,6MM,8.33,13.33,0,0,1.051282051,1.052631579,0,70,NA,30,25,0,NA,NA,15,14,3,21.43,47,9,58,ε3/ε3,NA,0.938732
ADNI,ADNI-008-06418,6418,8,ADNI3,66.8,Years,2,>=65,Male,White,6,Not Hispanic or Latino,Y,NA,NA,NA,6/19/2018,NA,NA,NA,NA,18,Married,NA,NA,CN,NA,NA,NA,NA,4,4,0,0,1.179487179,1.153846154,0,72,NA,29,28,0,NA,NA,14,15,0,0,58,11,41,ε3/ε3,NA,3.234079
ADNI,ADNI-008-06465,6465,8,ADNI3,66.9,Years,2,>=65,Male,White,6,Not Hispanic or Latino,Y,NA,NA,NA,7/23/2018,NA,NA,NA,NA,18,Married,NA,NA,CN,Elevated,Elevated,FBP,6MM,7,10,0,0,1.128205128,1.076923077,0,74,NA,30,26,0,NA,NA,13,14,6,66.67,38,4,60,ε3/ε3,NA,1.324097
ADNI,ADNI-008-06618,6618,8,ADNI3,84.8,Years,2,>=65,Male,White,6,Not Hispanic or Latino,Y,Yes,NA,NA,12/18/2018,5/29/2025,NA,6/30/2025,M,12,Married,NA,NA,MCI,Elevated,Elevated,FBP,6MM,19,31,0.5,4,2.131578947,1.684210526,9,36,NA,26,14,0,NA,NA,3,4,5,83.33,26,2,238,ε3/ε4,NA,-10.888108
ADNI,ADNI-008-06714,6714,8,ADNI3,63.3,Years,1,<65,Female,Black or African American,3,Not Hispanic or Latino,Y,Yes,NA,NA,5/20/2019,10/16/2020,NA,6/30/2020,M,12,Married,NA,NA,CN,Non Elevated,Non Elevated,FBP,6MM,5,11,0,0,1.717948718,1.025641026,0,67,NA,30,23,0,NA,NA,11,12,4,33.33,46,7,57,ε2/ε3,NA,0.355737
ADNI,ADNI-008-07022,7022,8,ADNI3,64,Years,1,<65,Female,Black or African American,3,Not Hispanic or Latino,NA,NA,NA,NA,NA,2/22/2022,NA,NA,NA,NA,NA,NA,NA,NA,NA,NA,NA,NA,NA,NA,NA,NA,NA,NA,NA,NA,NA,NA,NA,NA,NA,NA,NA,NA,NA,NA,NA,NA,NA,NA,NA,NA
ADNI,ADNI-008-07028,7028,8,ADNI3,65.4,Years,2,>=65,Female,Black or African American,3,Not Hispanic or Latino,NA,NA,NA,NA,NA,6/9/2022,NA,NA,NA,NA,NA,NA,NA,NA,NA,NA,NA,NA,NA,NA,NA,NA,NA,NA,NA,NA,NA,NA,NA,NA,NA,NA,NA,NA,NA,NA,NA,NA,NA,NA,NA,NA
ADNI,ADNI-008-07048,7048,8,ADNI3,61.9,Years,1,<65,Female,Black or African American,3,Not Hispanic or Latino,Y,NA,NA,NA,3/25/2022,NA,NA,NA,NA,14,Never married,NA,NA,CN,Non Elevated,Non Elevated,FBP,6MM,7.33,12.33,0,0,1,1.307692308,0,56,NA,28,25,0,NA,NA,12,16,2,22.22,42,2,128,ε3/ε3,NA,-3.019997
ADNI,ADNI-008-07089,7089,8,ADNI3,65.7,Years,2,>=65,Female,Black or African American,3,Not Hispanic or Latino,Y,NA,NA,NA,8/3/2022,NA,NA,NA,NA,16,Widowed,NA,NA,CN,NA,NA,NA,NA,3,7,0,0,1.184210526,1.333333333,0,64,NA,30,26,4,NA,NA,12,15,4,40,35,6,110,ε4/ε4,NA,-0.950059
ADNI,ADNI-008-07112,7112,8,ADNI3,57.4,Years,1,<65,Male,Black or African American,3,Not Hispanic or Latino,NA,NA,NA,NA,NA,11/18/2024,NA,NA,NA,NA,NA,NA,NA,NA,NA,NA,NA,NA,NA,NA,NA,NA,NA,NA,NA,NA,NA,NA,NA,NA,NA,NA,NA,NA,NA,NA,NA,NA,NA,NA,NA,NA
ADNI,ADNI-009-00141,141,9,ADNI1,81.1,Years,2,>=65,Male,White,6,Not Hispanic or Latino,Y,NA,NA,NA,2/22/2006,NA,NA,NA,NA,12,Married,NA,NA,MCI,NA,NA,NA,NA,12.67,19.67,0.5,3,NA,NA,9,NA,1,27,NA,NA,0,32,3,4,4,100,21,2,300,ε3/ε4,-8.014667,-10.083392
ADNI,ADNI-009-00159,159,9,ADNI1,77.9,Years,2,>=65,Female,White,6,Not Hispanic or Latino,Y,NA,NA,NA,3/3/2006,NA,NA,NA,NA,17,Married,NA,NA,CN,NA,NA,NA,NA,4.33,5.33,0,0,NA,NA,0,NA,2,30,NA,NA,0,52,20,18,0,0,53,10,66,ε3/ε3,4.480986,4.136576
ADNI,ADNI-009-00164,164,9,ADNI1,59.1,Years,1,<65,Male,White,6,Not Hispanic or Latino,NA,NA,NA,NA,NA,NA,NA,NA,NA,NA,NA,NA,NA,NA,NA,NA,NA,NA,NA,NA,NA,NA,NA,NA,NA,NA,NA,NA,NA,NA,NA,NA,NA,NA,NA,NA,NA,NA,NA,NA,NA,NA
ADNI,ADNI-009-00178,178,9,ADNI1,64.8,Years,1,<65,Male,White,6,Not Hispanic or Latino,Y,NA,NA,NA,3/7/2006,NA,NA,NA,NA,20,Married,NA,NA,MCI,NA,NA,NA,NA,4.33,9.33,0.5,1.5,NA,NA,2,NA,0,29,NA,NA,2,60,8,11,6,54.55,40,6,62,ε3/ε3,-1.098316,-2.07596
ADNI,ADNI-009-00218,218,9,ADNI1,67.2,Years,2,>=65,Male,White,6,Not Hispanic or Latino,NA,NA,NA,NA,NA,NA,NA,NA,NA,NA,NA,NA,NA,NA,NA,NA,NA,NA,NA,NA,NA,NA,NA,NA,NA,NA,NA,NA,NA,NA,NA,NA,NA,NA,NA,NA,NA,NA,NA,NA,NA,NA
ADNI,ADNI-009-00231,231,9,ADNI1,60.4,Years,1,<65,Male,White,6,Not Hispanic or Latino,Y,NA,NA,NA,3/16/2006,NA,NA,NA,NA,18,Married,NA,NA,MCI,NA,NA,NA,NA,8.33,17.33,0.5,1.5,NA,NA,6,NA,4,29,NA,NA,0,21,3,7,5,71.43,28,3,180,ε3/ε3,-8.431053,-8.174058
ADNI,ADNI-009-00273,273,9,ADNI1,62.9,Years,1,<65,Male,White,6,Not Hispanic or Latino,Y,Yes,NA,NA,4/5/2006,6/30/2009,M,6/30/2009,M,12,Married,NA,NA,MCI,NA,NA,NA,NA,12,23,0.5,1,NA,NA,0,NA,3,30,NA,NA,0,25,4,7,8,100,27,3,195,ε2/ε3,-6.902108,-7.23249
ADNI,ADNI-009-00276,276,9,ADNI1,70.9,Years,2,>=65,Male,White,6,Not Hispanic or Latino,Y,Yes,NA,NA,3/29/2006,6/30/2016,M,6/30/2016,M,18,Married,NA,NA,MCI,NA,NA,NA,NA,6.67,9.67,0.5,1,NA,NA,8,NA,0,30,NA,NA,0,60,6,9,0,0,52,9,66,ε2/ε3,0.219487,-0.909134
ADNI,ADNI-009-00332,332,9,ADNI1,69.9,Years,2,>=65,Male,White,6,Not Hispanic or Latino,Y,NA,NA,NA,4/19/2006,NA,NA,NA,NA,16,Married,NA,NA,DEM,NA,NA,NA,NA,14.67,24.67,0.5,2.5,NA,NA,14,NA,3,25,NA,NA,8,31,1,4,3,75,17,2,119,ε3/ε3,-10.906096,-10.621329
ADNI,ADNI-009-00334,334,9,ADNI1,80.4,Years,2,>=65,Female,White,6,Not Hispanic or Latino,NA,NA,NA,NA,NA,NA,NA,NA,NA,NA,NA,NA,NA,NA,NA,NA,NA,NA,NA,NA,NA,NA,NA,NA,NA,NA,NA,NA,NA,NA,NA,NA,NA,NA,NA,NA,NA,NA,NA,ε3/ε3,NA,NA
ADNI,ADNI-009-00337,337,9,ADNI1,75.8,Years,2,>=65,Male,White,6,Not Hispanic or Latino,Y,NA,NA,NA,4/25/2006,NA,NA,NA,NA,20,Married,NA,NA,CN,NA,NA,NA,NA,3.33,5.33,0,0,NA,NA,0,NA,0,30,NA,NA,0,43,13,13,6,42.86,40,10,102,ε3/ε4,1.075893,0.55901
ADNI,ADNI-009-00343,343,9,ADNI1,71.8,Years,2,>=65,Male,White,6,Not Hispanic or Latino,Y,NA,NA,NA,4/25/2006,NA,NA,NA,NA,12,Married,NA,NA,DEM,NA,NA,NA,NA,14.33,25.33,1,4.5,NA,NA,12,NA,0,22,NA,NA,11,29,0,5,5,100,19,2,300,ε3/ε4,-14.979791,-16.754437
ADNI,ADNI-009-00424,424,9,ADNI1,80.7,Years,2,>=65,Male,White,6,Not Hispanic or Latino,Y,NA,NA,NA,5/11/2006,NA,NA,NA,NA,16,Married,NA,NA,MCI,NA,NA,NA,NA,11.67,16.67,0.5,1.5,NA,NA,4,NA,0,27,NA,NA,7,25,8,12,4,50,30,4,241,ε3/ε4,-5.191146,-6.038595
ADNI,ADNI-009-00462,462,9,ADNI1,76,Years,2,>=65,Male,White,6,Not Hispanic or Latino,NA,NA,NA,NA,NA,NA,NA,NA,NA,NA,NA,NA,NA,NA,NA,NA,NA,NA,NA,NA,NA,NA,NA,NA,NA,NA,NA,NA,NA,NA,NA,NA,NA,NA,NA,NA,NA,NA,NA,NA,NA,NA
ADNI,ADNI-009-00475,475,9,ADNI1,82.9,Years,2,>=65,Female,White,6,Not Hispanic or Latino,NA,NA,NA,NA,NA,NA,NA,NA,NA,NA,NA,NA,NA,NA,NA,NA,NA,NA,NA,NA,NA,NA,NA,NA,NA,NA,NA,NA,NA,NA,NA,NA,NA,NA,NA,NA,NA,NA,NA,NA,NA,NA
ADNI,ADNI-009-00626,626,9,ADNI1,83.2,Years,2,>=65,Male,White,6,Not Hispanic or Latino,Y,NA,NA,NA,8/7/2006,2/28/2019,NA,NA,NA,16,Married,NA,NA,MCI,NA,NA,NA,NA,11.67,19.67,0.5,1,NA,NA,0,NA,2,25,NA,NA,1,35,6,7,7,100,23,4,104,ε3/ε3,-8.563458,-8.343297
ADNI,ADNI-009-00630,630,9,ADNI1,82.1,Years,2,>=65,Male,White,6,Not Hispanic or Latino,NA,NA,NA,NA,NA,NA,NA,NA,NA,NA,NA,NA,NA,NA,NA,NA,NA,NA,NA,NA,NA,NA,NA,NA,NA,NA,NA,NA,NA,NA,NA,NA,NA,NA,NA,NA,NA,NA,NA,ε3/ε4,NA,NA
ADNI,ADNI-009-00642,642,9,ADNI1,84.6,Years,2,>=65,Male,White,6,Not Hispanic or Latino,Y,NA,NA,NA,7/26/2006,NA,NA,NA,NA,16,Married,NA,NA,DEM,NA,NA,NA,NA,13.33,23.33,1,5,NA,NA,6,NA,0,25,NA,NA,5,22,0,8,6,100,26,2,108,ε3/ε3,-12.59422,-11.191412
ADNI,ADNI-009-00647,647,9,ADNI1,72.8,Years,2,>=65,Male,White,6,Not Hispanic or Latino,Y,Yes,NA,NA,8/2/2006,6/30/2009,M,6/30/2009,M,16,Married,NA,NA,CN,NA,NA,NA,NA,4.33,5.33,0,0,NA,NA,1,NA,5,30,NA,NA,1,58,9,11,3,23.08,49,7,66,ε3/ε3,1.921368,0.9888
ADNI,ADNI-009-00688,688,9,ADNI1,63,Years,1,<65,Male,White,6,Not Hispanic or Latino,NA,NA,NA,NA,NA,NA,NA,NA,NA,NA,NA,NA,NA,NA,NA,NA,NA,NA,NA,NA,NA,NA,NA,NA,NA,NA,NA,NA,NA,NA,NA,NA,NA,NA,NA,NA,NA,NA,NA,ε3/ε4,NA,NA
ADNI,ADNI-009-00753,753,9,ADNI1,65.5,Years,2,>=65,Male,White,6,Not Hispanic or Latino,Y,NA,NA,NA,9/11/2006,NA,NA,NA,NA,16,Married,NA,NA,DEM,NA,NA,NA,NA,20.33,32.33,1,4.5,NA,NA,7,NA,5,24,NA,NA,2,15,0,1,2,100,18,-2,300,ε4/ε4,-14.650807,-15.053082
ADNI,ADNI-009-00903,903,9,ADNI1,63.2,Years,1,<65,Male,White,6,Not Hispanic or Latino,NA,NA,NA,NA,NA,NA,NA,NA,NA,NA,NA,NA,NA,NA,NA,NA,NA,NA,NA,NA,NA,NA,NA,NA,NA,NA,NA,NA,NA,NA,NA,NA,NA,NA,NA,NA,NA,NA,NA,ε3/ε4,NA,NA
ADNI,ADNI-009-00984,984,9,ADNI1,76.6,Years,2,>=65,Male,White,6,Not Hispanic or Latino,Y,NA,NA,NA,12/20/2006,NA,NA,NA,NA,14,Married,NA,NA,CN,NA,NA,NA,NA,7.33,14.33,0,0,NA,NA,0,NA,0,30,NA,NA,0,41,13,16,2,22.22,33,4,89,ε3/ε4,-1.199058,-1.188984
ADNI,ADNI-009-01029,1029,9,ADNI1,58,Years,1,<65,Female,Black or African American,3,Not Hispanic or Latino,NA,NA,NA,NA,NA,NA,NA,NA,NA,NA,NA,NA,NA,NA,NA,NA,NA,NA,NA,NA,NA,NA,NA,NA,NA,NA,NA,NA,NA,NA,NA,NA,NA,NA,NA,NA,NA,NA,NA,ε4/ε4,NA,NA
ADNI,ADNI-009-01109,1109,9,ADNI1,77.8,Years,2,>=65,Female,White,6,Not Hispanic or Latino,Y,NA,NA,NA,1/10/2007,NA,NA,NA,NA,17,Married,NA,NA,DEM,NA,NA,NA,NA,11.67,21.67,1,5,NA,NA,15,NA,4,21,NA,NA,3,21,2,9,8,100,29,4,203,ε3/ε4,-15.002908,-15.039301
ADNI,ADNI-009-02117,2117,9,ADNIGO,74.7,Years,2,>=65,Male,White,6,Not Hispanic or Latino,NA,NA,NA,NA,NA,NA,NA,NA,NA,NA,NA,NA,NA,NA,NA,NA,NA,NA,NA,NA,NA,NA,NA,NA,NA,NA,NA,NA,NA,NA,NA,NA,NA,NA,NA,NA,NA,NA,NA,NA,NA,NA
ADNI,ADNI-009-02118,2118,9,ADNIGO,67.9,Years,2,>=65,Female,White,6,Not Hispanic or Latino,NA,NA,NA,NA,NA,NA,NA,NA,NA,NA,NA,NA,NA,NA,NA,NA,NA,NA,NA,NA,NA,NA,NA,NA,NA,NA,NA,NA,NA,NA,NA,NA,NA,NA,NA,NA,NA,NA,NA,NA,NA,NA
ADNI,ADNI-009-02306,2306,9,ADNIGO,61.4,Years,1,<65,Female,White,6,Not Hispanic or Latino,NA,NA,NA,NA,NA,NA,NA,NA,NA,NA,NA,NA,NA,NA,NA,NA,NA,NA,NA,NA,NA,NA,NA,NA,NA,NA,NA,NA,NA,NA,NA,NA,NA,NA,NA,NA,NA,NA,NA,NA,NA,NA
ADNI,ADNI-009-04012,4012,9,ADNI2,68.9,Years,2,>=65,Female,White,6,Not Hispanic or Latino,Y,NA,NA,NA,5/2/2011,NA,NA,NA,NA,16,Divorced,NA,NA,MCI,NA,NA,NA,NA,4,6,0.5,1.5,NA,NA,1,NA,2,29,NA,0,NA,NA,11,12,2,20,47,3,50,ε3/ε3,NA,0.859957
ADNI,ADNI-009-04026,4026,9,ADNI2,73.5,Years,2,>=65,Male,White,6,Not Hispanic or Latino,Y,NA,NA,NA,6/22/2011,NA,NA,NA,NA,16,Widowed,NA,NA,CN,NA,NA,NA,NA,5.67,9.67,0,0,NA,NA,0,NA,1,29,NA,0,NA,NA,15,17,4,30.77,53,7,82,ε2/ε3,NA,0.290421
ADNI,ADNI-009-04094,4094,9,ADNI2,60.1,Years,1,<65,Female,White,6,Not Hispanic or Latino,Y,NA,NA,NA,7/25/2011,9/30/2022,NA,NA,NA,12,Married,NA,NA,MCI,NA,NA,NA,NA,15.67,21.67,0.5,3.5,NA,NA,7,NA,5,26,NA,5,NA,NA,3,4,3,42.86,25,2,130,ε3/ε3,NA,-7.854263
ADNI,ADNI-009-04128,4128,9,ADNI2,72.9,Years,2,>=65,Female,White,6,Not Hispanic or Latino,Y,NA,NA,NA,8/19/2011,NA,NA,NA,NA,12,Married,NA,NA,MCI,NA,NA,NA,NA,9,12,0.5,0.5,NA,NA,0,NA,0,24,NA,3,NA,NA,7,9,4,57.14,30,3,175,ε3/ε4,NA,-7.57602
ADNI,ADNI-009-04161,4161,9,ADNI2,59.8,Years,1,<65,Male,White,6,Not Hispanic or Latino,NA,NA,NA,NA,NA,NA,NA,NA,NA,NA,NA,NA,NA,NA,NA,NA,NA,NA,NA,NA,NA,NA,NA,NA,NA,NA,NA,NA,NA,NA,NA,NA,NA,NA,NA,NA,NA,NA,NA,NA,NA,NA
ADNI,ADNI-009-04188,4188,9,ADNI2,77.2,Years,2,>=65,Male,White,6,Not Hispanic or Latino,Y,NA,NA,NA,10/4/2011,9/1/2021,NA,NA,NA,14,Married,NA,NA,MCI,NA,NA,NA,NA,15.67,26.67,0.5,1,NA,NA,5,NA,1,28,NA,2,NA,NA,6,5,4,66.67,25,2,79,ε3/ε4,NA,-6.683492
ADNI,ADNI-009-04246,4246,9,ADNI2,77.3,Years,2,>=65,Female,White,6,Not Hispanic or Latino,NA,NA,NA,NA,NA,NA,NA,NA,NA,NA,NA,NA,NA,NA,NA,NA,NA,NA,NA,NA,NA,NA,NA,NA,NA,NA,NA,NA,NA,NA,NA,NA,NA,NA,NA,NA,NA,NA,NA,NA,NA,NA
ADNI,ADNI-009-04247,4247,9,ADNI2,77.5,Years,2,>=65,Male,White,6,Not Hispanic or Latino,NA,NA,NA,NA,NA,NA,NA,NA,NA,NA,NA,NA,NA,NA,NA,NA,NA,NA,NA,NA,NA,NA,NA,NA,NA,NA,NA,NA,NA,NA,NA,NA,NA,NA,NA,NA,NA,NA,NA,NA,NA,NA
ADNI,ADNI-009-04316,4316,9,ADNI2,76,Years,2,>=65,Female,White,6,Not Hispanic or Latino,NA,NA,NA,NA,NA,NA,NA,NA,NA,NA,NA,NA,NA,NA,NA,NA,NA,NA,NA,NA,NA,NA,NA,NA,NA,NA,NA,NA,NA,NA,NA,NA,NA,NA,NA,NA,NA,NA,NA,NA,NA,NA
ADNI,ADNI-009-04425,4425,9,ADNI2,66.9,Years,2,>=65,Female,White,6,Not Hispanic or Latino,NA,NA,NA,NA,NA,NA,NA,NA,NA,NA,NA,NA,NA,NA,NA,NA,NA,NA,NA,NA,NA,NA,NA,NA,NA,NA,NA,NA,NA,NA,NA,NA,NA,NA,NA,NA,NA,NA,NA,NA,NA,NA
ADNI,ADNI-009-04472,4472,9,ADNI2,55.6,Years,1,<65,Female,White,6,Not Hispanic or Latino,NA,NA,NA,NA,NA,NA,NA,NA,NA,NA,NA,NA,NA,NA,NA,NA,NA,NA,NA,NA,NA,NA,NA,NA,NA,NA,NA,NA,NA,NA,NA,NA,NA,NA,NA,NA,NA,NA,NA,NA,NA,NA
ADNI,ADNI-009-04544,4544,9,ADNI2,81.3,Years,2,>=65,Male,White,6,Not Hispanic or Latino,NA,NA,NA,NA,NA,NA,NA,NA,NA,NA,NA,NA,NA,NA,NA,NA,NA,NA,NA,NA,NA,NA,NA,NA,NA,NA,NA,NA,NA,NA,NA,NA,NA,NA,NA,NA,NA,NA,NA,NA,NA,NA
ADNI,ADNI-009-04545,4545,9,ADNI2,67,Years,2,>=65,Female,White,6,Not Hispanic or Latino,Y,NA,NA,NA,3/27/2012,3/25/2020,NA,NA,NA,19,Married,NA,NA,CN,NA,NA,NA,NA,2.67,4.67,0,0,NA,NA,0,NA,2,30,NA,0,NA,NA,19,20,2,15.38,61,6,38,ε2/ε3,NA,4.657873
ADNI,ADNI-009-04642,4642,9,ADNI2,58.5,Years,1,<65,Female,Black or African American,3,Not Hispanic or Latino,NA,NA,NA,NA,NA,NA,NA,NA,NA,NA,NA,NA,NA,NA,NA,NA,NA,NA,NA,NA,NA,NA,NA,NA,NA,NA,NA,NA,NA,NA,NA,NA,NA,NA,NA,NA,NA,NA,NA,NA,NA,NA
ADNI,ADNI-009-04643,4643,9,ADNI2,65.1,Years,2,>=65,Female,White,6,Not Hispanic or Latino,Y,NA,NA,NA,4/27/2012,NA,NA,NA,NA,16,Married,NA,NA,CN,NA,NA,NA,NA,1.67,2.67,0,0,NA,NA,2,NA,2,29,NA,0,NA,NA,9,9,3,20,67,5,42,ε3/ε3,NA,1.225836
ADNI,ADNI-009-04849,4849,9,ADNI2,65.9,Years,2,>=65,Female,White,6,Not Hispanic or Latino,Y,NA,NA,NA,8/22/2012,NA,NA,NA,NA,18,Divorced,NA,NA,MCI,NA,NA,NA,NA,4,9,0.5,1.5,NA,NA,0,NA,4,29,NA,0,NA,NA,10,12,8,61.54,51,7,61,ε4/ε4,NA,-1.464394
ADNI,ADNI-009-04908,4908,9,ADNI2,68.5,Years,2,>=65,Female,White,6,Not Hispanic or Latino,NA,NA,NA,NA,NA,NA,NA,NA,NA,NA,NA,NA,NA,NA,NA,NA,NA,NA,NA,NA,NA,NA,NA,NA,NA,NA,NA,NA,NA,NA,NA,NA,NA,NA,NA,NA,NA,NA,NA,NA,NA,NA
ADNI,ADNI-009-04967,4967,9,ADNI2,76.4,Years,2,>=65,Male,White,6,Not Hispanic or Latino,NA,NA,NA,NA,NA,NA,NA,NA,NA,NA,NA,NA,NA,NA,NA,NA,NA,NA,NA,NA,NA,NA,NA,NA,NA,NA,NA,NA,NA,NA,NA,NA,NA,NA,NA,NA,NA,NA,NA,NA,NA,NA
ADNI,ADNI-009-04987,4987,9,ADNI2,69.3,Years,2,>=65,Male,White,6,Not Hispanic or Latino,Y,NA,NA,NA,11/20/2012,NA,NA,NA,NA,18,Married,NA,NA,MCI,NA,NA,NA,NA,9.33,15.33,0.5,3.5,NA,NA,13,NA,1,25,NA,15,NA,NA,10,10,3,33.33,49,2,99,ε3/ε3,NA,-6.039538
ADNI,ADNI-009-05121,5121,9,ADNI2,76.9,Years,2,>=65,Male,White,6,Not Hispanic or Latino,Y,NA,NA,NA,4/30/2013,NA,NA,NA,NA,16,Married,NA,NA,CN,NA,NA,NA,NA,9.33,15.33,0,0,NA,NA,13,NA,0,30,NA,24,NA,NA,13,12,1,8.33,48,7,48,ε2/ε3,NA,0.302176
ADNI,ADNI-009-05157,5157,9,ADNI2,65.6,Years,2,>=65,Male,White,6,Not Hispanic or Latino,Y,NA,NA,NA,6/18/2013,NA,NA,NA,NA,17,Married,NA,NA,CN,NA,NA,NA,NA,2.67,3.67,0,0,NA,NA,0,NA,0,28,NA,0,NA,NA,14,14,2,14.29,43,9,52,ε3/ε3,NA,1.293146
ADNI,ADNI-009-05195,5195,9,ADNI2,65.1,Years,2,>=65,Female,White,6,Not Hispanic or Latino,Y,NA,NA,NA,7/3/2013,NA,NA,NA,NA,16,Widowed,NA,NA,CN,NA,NA,NA,NA,2.33,6.33,0,0,NA,NA,0,NA,2,29,NA,0,NA,NA,10,11,5,38.46,48,7,97,ε2/ε4,NA,-1.547831
ADNI,ADNI-009-05213,5213,9,ADNI2,65.4,Years,2,>=65,Female,White,6,Not Hispanic or Latino,Y,NA,NA,NA,8/15/2013,NA,NA,NA,NA,16,Married,NA,NA,CN,NA,NA,NA,NA,2,5,0,0,NA,NA,0,NA,2,28,NA,0,NA,NA,16,16,2,13.33,55,10,54,ε3/ε3,NA,1.254897
ADNI,ADNI-009-06073,6073,9,ADNI3,62.9,Years,1,<65,Male,White,6,Not Hispanic or Latino,Y,NA,NA,NA,10/10/2017,NA,NA,NA,NA,17,Married,NA,NA,MCI,Elevated,Elevated,FBP,6MM,18.67,28.67,0.5,1,1.564102564,2.552631579,8,54,NA,26,19,0,NA,NA,0,1,4,100,12,2,250,ε3/ε3,NA,-11.34702
ADNI,ADNI-009-06503,6503,9,ADNI3,75.9,Years,2,>=65,Male,White,6,Not Hispanic or Latino,Y,NA,NA,NA,8/29/2018,NA,NA,NA,NA,18,Married,NA,NA,MCI,Elevated,Elevated,FBP,6MM,6.33,10.33,0.5,0.5,1.538461538,1.102564103,0,70,NA,29,24,0,NA,NA,10,8,2,28.57,27,4,67,ε3/ε4,NA,-1.171226
ADNI,ADNI-009-06662,6662,9,ADNI3,68.3,Years,2,>=65,Male,White,6,Not Hispanic or Latino,NA,NA,NA,NA,NA,1/8/2019,NA,NA,NA,NA,NA,NA,NA,NA,NA,NA,NA,NA,NA,NA,NA,NA,NA,NA,NA,NA,NA,NA,NA,NA,NA,NA,NA,NA,NA,NA,NA,NA,NA,NA,NA,NA
ADNI,ADNI-009-06760,6760,9,ADNI3,70.8,Years,2,>=65,Male,White,6,Not Hispanic or Latino,Y,NA,NA,NA,8/5/2019,NA,NA,NA,NA,20,Married,NA,NA,MCI,Non Elevated,Non Elevated,FBP,6MM,10,16,0.5,0.5,1.820512821,1.081081081,0,62,NA,26,21,1,NA,NA,10,14,5,83.33,32,1,88,ε3/ε3,NA,-5.422774
ADNI,ADNI-009-06837,6837,9,ADNI3,57.2,Years,1,<65,Male,White,6,Not Hispanic or Latino,Y,NA,NA,NA,12/9/2019,NA,NA,NA,NA,16,Married,NA,NA,DEM,Non Elevated,Non Elevated,FBP,6MM,10.33,18.33,1,7,3.307692308,3.405405405,14,NA,NA,20,20,9,NA,NA,6,7,7,58.33,44,8,103,ε3/ε4,NA,-11.533764
ADNI,ADNI-009-10262,10262,9,ADNI4,68.9,Years,2,>=65,Female,Black or African American,3,Not Hispanic or Latino,NA,NA,NA,NA,NA,8/6/2025,NA,NA,NA,NA,NA,NA,NA,NA,NA,NA,NA,NA,NA,NA,NA,NA,NA,NA,NA,NA,NA,NA,NA,NA,NA,NA,NA,NA,NA,NA,NA,NA,NA,NA,NA,NA
ADNI,ADNI-009-10280,10280,9,ADNI4,70.6,Years,2,>=65,Female,Black or African American,3,Not Hispanic or Latino,Y,NA,NA,NA,5/30/2025,NA,NA,NA,NA,18,Married,NA,NA,CN,NA,NA,NA,NA,4.67,7.67,0,0,NA,NA,0,NA,NA,29,21,0,NA,NA,16,20,8,88.89,40,4,58,NA,NA,1.413666
ADNI,ADNI-009-10291,10291,9,ADNI4,67.1,Years,2,>=65,Male,Black or African American,3,Not Hispanic or Latino,NA,NA,NA,NA,NA,8/6/2025,NA,NA,NA,NA,NA,NA,NA,NA,NA,NA,NA,NA,NA,NA,NA,NA,NA,NA,NA,NA,NA,NA,NA,NA,NA,NA,NA,NA,NA,NA,NA,NA,NA,NA,NA,NA
ADNI,ADNI-009-10620,10620,9,ADNI4,66.9,Years,2,>=65,Female,Black or African American,3,Not Hispanic or Latino,Y,NA,NA,NA,8/1/2025,NA,NA,NA,NA,16,Never married,NA,NA,MCI,NA,NA,NA,NA,11,16,0,0,NA,NA,0,NA,NA,29,23,0,NA,NA,7,9,6,66.67,35,6,141,NA,NA,-4.355339
ADNI,ADNI-009-10656,10656,9,ADNI4,72.8,Years,2,>=65,Male,White,6,Not Hispanic or Latino,Y,NA,NA,NA,7/10/2025,NA,NA,NA,NA,13,Married,NA,NA,MCI,NA,NA,NA,NA,11.33,17.33,0.5,1,NA,NA,0,NA,NA,30,22,12,NA,NA,9,12,4,57.14,32,4,91,NA,NA,-1.867811
ADNI,ADNI-009-10836,10836,9,ADNI4,76.4,Years,2,>=65,Female,White,6,Not Hispanic or Latino,NA,NA,NA,NA,NA,NA,NA,NA,NA,NA,NA,NA,NA,NA,NA,NA,NA,NA,NA,NA,NA,NA,NA,NA,NA,NA,NA,NA,NA,NA,NA,NA,NA,NA,NA,NA,NA,NA,NA,NA,NA,NA
ADNI,ADNI-010-00001,1,10,ADNI1,60.7,Years,1,<65,Female,NA,NA,NA,NA,NA,NA,NA,NA,NA,NA,NA,NA,NA,NA,NA,NA,NA,NA,NA,NA,NA,NA,NA,NA,NA,NA,NA,NA,NA,NA,NA,NA,NA,NA,NA,NA,NA,NA,NA,NA,NA,NA,NA,NA,NA
ADNI,ADNI-010-00004,4,10,ADNI1,67.6,Years,2,>=65,Male,White,6,Hispanic or Latino,Y,NA,NA,NA,11/8/2005,NA,NA,NA,NA,10,Married,NA,NA,MCI,NA,NA,NA,NA,14.33,21.33,0.5,1,NA,NA,0,NA,3,27,NA,NA,0,25,4,5,4,36.36,37,7,271,ε3/ε3,-7.894966,-9.029037
ADNI,ADNI-010-00007,7,10,ADNI1,75.4,Years,2,>=65,Male,More than one race,7,Hispanic or Latino,Y,NA,NA,NA,10/6/2005,NA,NA,NA,NA,10,Married,NA,NA,DEM,NA,NA,NA,NA,27.33,40.33,1,6,NA,NA,17,NA,1,20,NA,NA,10,9,0,1,3,75,17,2,300,ε3/ε4,-18.641674,-18.455791
ADNI,ADNI-010-00009,9,10,ADNI1,81.7,Years,2,>=65,Female,White,6,Not Hispanic or Latino,NA,NA,NA,NA,NA,NA,NA,NA,NA,NA,NA,NA,NA,NA,NA,NA,NA,NA,NA,NA,NA,NA,NA,NA,NA,NA,NA,NA,NA,NA,NA,NA,NA,NA,NA,NA,NA,NA,NA,ε3/ε3,NA,NA
ADNI,ADNI-010-00012,12,10,ADNI1,NA,Years,NA,NA,NA,NA,NA,NA,NA,NA,NA,NA,NA,NA,NA,NA,NA,NA,NA,NA,NA,NA,NA,NA,NA,NA,NA,NA,NA,NA,NA,NA,NA,NA,NA,NA,NA,NA,NA,NA,NA,NA,NA,NA,NA,NA,NA,NA,NA,NA
ADNI,ADNI-010-00013,13,10,ADNI1,58,Years,1,<65,Female,Black or African American,3,Not Hispanic or Latino,NA,NA,NA,NA,NA,NA,NA,NA,NA,NA,NA,NA,NA,NA,NA,NA,NA,NA,NA,NA,NA,NA,NA,NA,NA,NA,NA,NA,NA,NA,NA,NA,NA,NA,NA,NA,NA,NA,NA,NA,NA,NA
ADNI,ADNI-010-00014,14,10,ADNI1,78.5,Years,2,>=65,Female,White,6,Hispanic or Latino,Y,NA,NA,NA,11/4/2005,NA,NA,NA,NA,12,Divorced,NA,NA,CN,NA,NA,NA,NA,4.33,8.33,0,0,NA,NA,0,NA,0,29,NA,NA,0,30,10,9,4,36.36,45,6,101,ε3/ε3,-2.947061,-2.165673
ADNI,ADNI-010-00018,18,10,ADNI1,80.5,Years,2,>=65,Male,White,6,Not Hispanic or Latino,NA,NA,NA,NA,NA,NA,NA,NA,NA,NA,NA,NA,NA,NA,NA,NA,NA,NA,NA,NA,NA,NA,NA,NA,NA,NA,NA,NA,NA,NA,NA,NA,NA,NA,NA,NA,NA,NA,NA,ε3/ε3,NA,NA
ADNI,ADNI-010-00026,26,10,ADNI1,74.7,Years,2,>=65,Male,White,6,Hispanic or Latino,NA,NA,NA,NA,NA,NA,NA,NA,NA,NA,NA,NA,NA,NA,NA,NA,NA,NA,NA,NA,NA,NA,NA,NA,NA,NA,NA,NA,NA,NA,NA,NA,NA,NA,NA,NA,NA,NA,NA,ε3/ε3,NA,NA
ADNI,ADNI-010-00044,44,10,ADNI1,85.9,Years,2,>=65,Female,White,6,Not Hispanic or Latino,Y,NA,NA,NA,11/30/2005,NA,NA,NA,NA,16,Married,NA,NA,MCI,NA,NA,NA,NA,17,28,0.5,2,NA,NA,4,NA,4,26,NA,NA,0,43,1,5,7,100,26,2,90,ε3/ε3,-9.918551,-10.131631
ADNI,ADNI-010-00066,66,10,ADNI1,74.5,Years,2,>=65,Male,White,6,Not Hispanic or Latino,Y,NA,NA,NA,12/7/2005,NA,NA,NA,NA,18,Married,NA,NA,CN,NA,NA,NA,NA,3.33,5.33,0,0,NA,NA,0,NA,0,30,NA,NA,1,56,16,14,3,23.08,48,9,37,ε2/ε3,3.208721,3.863096
ADNI,ADNI-010-00096,96,10,ADNI1,79.6,Years,2,>=65,Male,White,6,Not Hispanic or Latino,Y,NA,NA,NA,1/31/2006,NA,NA,NA,NA,20,Married,NA,NA,CN,NA,NA,NA,NA,3,4,0,0,NA,NA,0,NA,0,30,NA,NA,0,59,18,19,1,7.14,51,8,103,ε3/ε3,4.594848,2.485845
ADNI,ADNI-010-00129,129,10,ADNI1,80.2,Years,2,>=65,Female,White,6,Not Hispanic or Latino,Y,NA,NA,NA,2/13/2006,NA,NA,NA,NA,16,Married,NA,NA,DEM,NA,NA,NA,NA,20.67,31.67,1,4.5,NA,NA,9,NA,1,22,NA,NA,1,50,0,3,5,100,19,4,120,ε3/ε3,-12.921236,-14.519326
ADNI,ADNI-010-00130,130,10,ADNI1,73.1,Years,2,>=65,Male,White,6,Not Hispanic or Latino,Y,NA,NA,NA,2/7/2006,NA,NA,NA,NA,16,Married,NA,NA,CN,NA,NA,NA,NA,6,7,0,0,NA,NA,0,NA,1,30,NA,NA,0,50,10,13,6,54.55,37,7,44,ε3/ε3,1.423318,2.251173
ADNI,ADNI-010-00219,219,10,ADNI1,74.4,Years,2,>=65,Male,White,6,Hispanic or Latino,Y,NA,NA,NA,4/4/2006,NA,NA,NA,NA,4,Married,NA,NA,DEM,NA,NA,NA,NA,9.67,17.67,1,4.5,NA,NA,2,NA,2,22,NA,NA,6,21,0,0,4,100,17,0,261,ε3/ε4,-14.204829,-14.854925
ADNI,ADNI-010-00270,270,10,ADNI1,77.5,Years,2,>=65,Female,White,6,Not Hispanic or Latino,NA,NA,NA,NA,NA,NA,NA,NA,NA,NA,NA,NA,NA,NA,NA,NA,NA,NA,NA,NA,NA,NA,NA,NA,NA,NA,NA,NA,NA,NA,NA,NA,NA,NA,NA,NA,NA,NA,NA,ε3/ε3,NA,NA
ADNI,ADNI-010-00287,287,10,ADNI1,64.9,Years,1,<65,Female,More than one race,7,Hispanic or Latino,NA,NA,NA,NA,NA,NA,NA,NA,NA,NA,NA,NA,NA,NA,NA,NA,NA,NA,NA,NA,NA,NA,NA,NA,NA,NA,NA,NA,NA,NA,NA,NA,NA,NA,NA,NA,NA,NA,NA,ε2/ε3,NA,NA
ADNI,ADNI-010-00543,543,10,ADNI1,72.2,Years,2,>=65,Female,White,6,Not Hispanic or Latino,Y,NA,NA,NA,6/6/2006,NA,NA,NA,NA,18,Married,NA,NA,DEM,NA,NA,NA,NA,29.33,43.33,0.5,4,NA,NA,8,NA,0,25,NA,NA,0,4,1,1,5,100,20,2,NA,ε3/ε4,-14.072534,-13.307006
ADNI,ADNI-010-00544,544,10,ADNI1,76.8,Years,2,>=65,Female,White,6,Not Hispanic or Latino,Y,NA,NA,NA,5/24/2006,NA,NA,NA,NA,12,Widowed,NA,NA,MCI,NA,NA,NA,NA,8.33,14.33,0.5,4,NA,NA,12,NA,1,28,NA,NA,2,21,4,11,2,15.38,51,6,130,ε3/ε3,-6.396946,-5.347022
ADNI,ADNI-010-00570,570,10,ADNI1,79.7,Years,2,>=65,Male,Black or African American,3,Not Hispanic or Latino,NA,NA,NA,NA,NA,NA,NA,NA,NA,NA,NA,NA,NA,NA,NA,NA,NA,NA,NA,NA,NA,NA,NA,NA,NA,NA,NA,NA,NA,NA,NA,NA,NA,NA,NA,NA,NA,NA,NA,ε3/ε4,NA,NA
ADNI,ADNI-010-00750,750,10,ADNI1,75.6,Years,2,>=65,Female,White,6,Not Hispanic or Latino,Y,NA,NA,NA,8/25/2006,NA,NA,NA,NA,12,Divorced,NA,NA,MCI,NA,NA,NA,NA,8.67,13.67,0.5,2,NA,NA,1,NA,1,27,NA,NA,0,32,4,6,10,100,36,8,205,ε3/ε4,-5.649608,-6.788219
ADNI,ADNI-010-00924,924,10,ADNI1,69.6,Years,2,>=65,Male,White,6,Not Hispanic or Latino,Y,NA,NA,NA,10/12/2006,NA,NA,NA,NA,12,Married,NA,NA,MCI,NA,NA,NA,NA,14.33,21.33,0.5,2,NA,NA,10,NA,1,25,NA,NA,4,33,0,5,6,100,27,1,124,ε3/ε4,-10.47648,-10.487887
ADNI,ADNI-010-00961,961,10,ADNI1,72.8,Years,2,>=65,Male,White,6,Not Hispanic or Latino,Y,NA,NA,NA,10/31/2006,NA,NA,NA,NA,16,Married,NA,NA,MCI,NA,NA,NA,NA,10.67,18.67,0.5,1.5,NA,NA,1,NA,1,26,NA,NA,0,49,3,5,1,16.67,25,3,61,ε3/ε4,-7.198895,-7.059006
ADNI,ADNI-010-01003,1003,10,ADNI1,71.1,Years,2,>=65,Male,White,6,Not Hispanic or Latino,NA,NA,NA,NA,NA,NA,NA,NA,NA,NA,NA,NA,NA,NA,NA,NA,NA,NA,NA,NA,NA,NA,NA,NA,NA,NA,NA,NA,NA,NA,NA,NA,NA,NA,NA,NA,NA,NA,NA,ε3/ε4,NA,NA
ADNI,ADNI-010-01097,1097,10,ADNI1,73.1,Years,2,>=65,Male,White,6,Not Hispanic or Latino,Y,NA,NA,NA,12/6/2006,NA,NA,NA,NA,18,Married,NA,NA,MCI,NA,NA,NA,NA,18,26,0.5,1.5,NA,NA,4,NA,1,25,NA,NA,1,41,1,4,6,100,20,3,105,ε3/ε3,-9.406107,-9.797352
ADNI,ADNI-010-01167,1167,10,ADNI1,64.2,Years,1,<65,Female,Black or African American,3,Not Hispanic or Latino,NA,NA,NA,NA,NA,NA,NA,NA,NA,NA,NA,NA,NA,NA,NA,NA,NA,NA,NA,NA,NA,NA,NA,NA,NA,NA,NA,NA,NA,NA,NA,NA,NA,NA,NA,NA,NA,NA,NA,ε3/ε4,NA,NA
ADNI,ADNI-010-01351,1351,10,ADNI1,71.9,Years,2,>=65,Female,White,6,Not Hispanic or Latino,Y,NA,NA,NA,3/16/2007,NA,NA,NA,NA,12,Married,NA,NA,MCI,NA,NA,NA,NA,14,21,0.5,1,NA,NA,1,NA,0,30,NA,NA,0,61,4,8,2,33.33,32,0,65,ε4/ε4,-2.333708,-3.523474
ADNI,ADNI-010-01366,1366,10,ADNI1,73.6,Years,2,>=65,Male,More than one race,7,Hispanic or Latino,Y,NA,NA,NA,4/16/2007,NA,NA,NA,NA,4,Married,NA,NA,MCI,NA,NA,NA,NA,24,32,0.5,2,NA,NA,5,NA,3,26,NA,NA,6,NA,2,5,4,80,22,2,NA,ε3/ε3,-9.019356,-9.019356
ADNI,ADNI-010-01394,1394,10,ADNI1,77.1,Years,2,>=65,Male,White,6,Not Hispanic or Latino,Y,Yes,NA,NA,6/11/2007,6/30/2014,M,6/30/2014,M,18,Married,NA,NA,MCI,NA,NA,NA,NA,21.33,32.33,0.5,2,NA,NA,1,NA,0,27,NA,NA,1,16,5,6,8,100,33,2,271,ε3/ε4,-10.050216,-10.302049
ADNI,ADNI-010-02104,2104,10,ADNIGO,68.5,Years,2,>=65,Female,White,6,Not Hispanic or Latino,NA,NA,NA,NA,NA,NA,NA,NA,NA,NA,NA,NA,NA,NA,NA,NA,NA,NA,NA,NA,NA,NA,NA,NA,NA,NA,NA,NA,NA,NA,NA,NA,NA,NA,NA,NA,NA,NA,NA,NA,NA,NA
ADNI,ADNI-010-02139,2139,10,ADNIGO,71.1,Years,2,>=65,Female,White,6,Hispanic or Latino,NA,NA,NA,NA,NA,NA,NA,NA,NA,NA,NA,NA,NA,NA,NA,NA,NA,NA,NA,NA,NA,NA,NA,NA,NA,NA,NA,NA,NA,NA,NA,NA,NA,NA,NA,NA,NA,NA,NA,NA,NA,NA
ADNI,ADNI-010-02141,2141,10,ADNIGO,66.9,Years,2,>=65,Female,White,6,Not Hispanic or Latino,NA,NA,NA,NA,NA,NA,NA,NA,NA,NA,NA,NA,NA,NA,NA,NA,NA,NA,NA,NA,NA,NA,NA,NA,NA,NA,NA,NA,NA,NA,NA,NA,NA,NA,NA,NA,NA,NA,NA,NA,NA,NA
ADNI,ADNI-010-02224,2224,10,ADNIGO,62.1,Years,1,<65,Female,White,6,Not Hispanic or Latino,NA,NA,NA,NA,NA,NA,NA,NA,NA,NA,NA,NA,NA,NA,NA,NA,NA,NA,NA,NA,NA,NA,NA,NA,NA,NA,NA,NA,NA,NA,NA,NA,NA,NA,NA,NA,NA,NA,NA,NA,NA,NA
ADNI,ADNI-010-02230,2230,10,ADNIGO,68.4,Years,2,>=65,Female,White,6,Not Hispanic or Latino,NA,NA,NA,NA,NA,NA,NA,NA,NA,NA,NA,NA,NA,NA,NA,NA,NA,NA,NA,NA,NA,NA,NA,NA,NA,NA,NA,NA,NA,NA,NA,NA,NA,NA,NA,NA,NA,NA,NA,NA,NA,NA
ADNI,ADNI-010-02246,2246,10,ADNIGO,62.1,Years,1,<65,Female,White,6,Not Hispanic or Latino,NA,NA,NA,NA,NA,NA,NA,NA,NA,NA,NA,NA,NA,NA,NA,NA,NA,NA,NA,NA,NA,NA,NA,NA,NA,NA,NA,NA,NA,NA,NA,NA,NA,NA,NA,NA,NA,NA,NA,NA,NA,NA
ADNI,ADNI-010-02251,2251,10,ADNIGO,64.3,Years,1,<65,Female,White,6,Not Hispanic or Latino,NA,NA,NA,NA,NA,NA,NA,NA,NA,NA,NA,NA,NA,NA,NA,NA,NA,NA,NA,NA,NA,NA,NA,NA,NA,NA,NA,NA,NA,NA,NA,NA,NA,NA,NA,NA,NA,NA,NA,NA,NA,NA
ADNI,ADNI-010-02268,2268,10,ADNIGO,81.9,Years,2,>=65,Female,White,6,Not Hispanic or Latino,NA,NA,NA,NA,NA,NA,NA,NA,NA,NA,NA,NA,NA,NA,NA,NA,NA,NA,NA,NA,NA,NA,NA,NA,NA,NA,NA,NA,NA,NA,NA,NA,NA,NA,NA,NA,NA,NA,NA,NA,NA,NA
ADNI,ADNI-010-02324,2324,10,ADNIGO,56.3,Years,1,<65,Female,Unknown,999,Hispanic or Latino,Y,NA,NA,NA,4/4/2011,NA,NA,NA,NA,13,Divorced,NA,NA,MCI,NA,NA,NA,NA,9.67,12.67,0.5,1,NA,NA,0,NA,4,29,NA,NA,0,NA,9,12,4,30.77,53,7,NA,ε3/ε4,NA,-1.559874
ADNI,ADNI-010-02389,2389,10,ADNIGO,57.8,Years,1,<65,Female,Unknown,999,Hispanic or Latino,Y,NA,NA,NA,7/15/2011,NA,NA,NA,NA,15,Married,NA,NA,MCI,NA,NA,NA,NA,3.33,9.33,0.5,1,NA,NA,2,NA,2,29,NA,NA,5,NA,8,7,3,27.27,43,6,67,ε3/ε3,NA,-2.263273
ADNI,ADNI-010-02393,2393,10,ADNIGO,58.4,Years,1,<65,Male,White,6,Not Hispanic or Latino,NA,NA,NA,NA,NA,NA,NA,NA,NA,NA,NA,NA,NA,NA,NA,NA,NA,NA,NA,NA,NA,NA,NA,NA,NA,NA,NA,NA,NA,NA,NA,NA,NA,NA,NA,NA,NA,NA,NA,NA,NA,NA
ADNI,ADNI-010-04236,4236,10,ADNI2,58.2,Years,1,<65,Female,White,6,Not Hispanic or Latino,NA,NA,NA,NA,NA,NA,NA,NA,NA,NA,NA,NA,NA,NA,NA,NA,NA,NA,NA,NA,NA,NA,NA,NA,NA,NA,NA,NA,NA,NA,NA,NA,NA,NA,NA,NA,NA,NA,NA,NA,NA,NA
ADNI,ADNI-010-04261,4261,10,ADNI2,64.2,Years,1,<65,Female,White,6,Not Hispanic or Latino,NA,NA,NA,NA,NA,NA,NA,NA,NA,NA,NA,NA,NA,NA,NA,NA,NA,NA,NA,NA,NA,NA,NA,NA,NA,NA,NA,NA,NA,NA,NA,NA,NA,NA,NA,NA,NA,NA,NA,NA,NA,NA
ADNI,ADNI-010-04268,4268,10,ADNI2,63.6,Years,1,<65,Female,White,6,Not Hispanic or Latino,Y,NA,NA,NA,11/8/2011,7/25/2023,NA,NA,NA,15,Married,NA,NA,MCI,NA,NA,NA,NA,8.67,11.67,0.5,0.5,NA,NA,0,NA,4,29,NA,1,NA,NA,8,9,4,33.33,45,8,54,ε3/ε3,NA,-0.703443
ADNI,ADNI-010-04395,4395,10,ADNI2,72.4,Years,2,>=65,Female,Black or African American,3,Not Hispanic or Latino,Y,NA,NA,NA,1/23/2012,NA,NA,NA,NA,16,Widowed,NA,NA,MCI,NA,NA,NA,NA,8.33,12.33,0.5,0.5,NA,NA,0,NA,3,26,NA,0,NA,NA,8,10,5,55.56,34,5,94,ε3/ε3,NA,-5.115657
ADNI,ADNI-010-04416,4416,10,ADNI2,59.9,Years,1,<65,Female,White,6,Not Hispanic or Latino,NA,NA,NA,NA,NA,NA,NA,NA,NA,NA,NA,NA,NA,NA,NA,NA,NA,NA,NA,NA,NA,NA,NA,NA,NA,NA,NA,NA,NA,NA,NA,NA,NA,NA,NA,NA,NA,NA,NA,NA,NA,NA
ADNI,ADNI-010-04570,4570,10,ADNI2,56.3,Years,1,<65,Male,Black or African American,3,Not Hispanic or Latino,NA,NA,NA,NA,NA,NA,NA,NA,NA,NA,NA,NA,NA,NA,NA,NA,NA,NA,NA,NA,NA,NA,NA,NA,NA,NA,NA,NA,NA,NA,NA,NA,NA,NA,NA,NA,NA,NA,NA,NA,NA,NA
ADNI,ADNI-010-04579,4579,10,ADNI2,85,Years,2,>=65,Male,White,6,Not Hispanic or Latino,Y,Yes,NA,NA,6/12/2012,6/30/2017,M,6/30/2017,M,12,Divorced,NA,NA,CN,Non Elevated,Non Elevated,FBP,6MM,9.33,16.33,0,0.5,NA,NA,0,NA,2,30,NA,0,NA,NA,13,12,4,80,27,1,65,ε3/ε3,NA,-0.428295
ADNI,ADNI-010-04580,4580,10,ADNI2,69.7,Years,2,>=65,Female,White,6,Not Hispanic or Latino,Y,NA,NA,NA,4/26/2012,NA,NA,NA,NA,16,Never married,NA,NA,CN,Non Elevated,Non Elevated,FBP,6MM,1.67,4.67,0,0,NA,NA,0,NA,2,30,NA,4,NA,NA,13,13,-1,-12.5,38,2,231,ε4/ε4,NA,-1.43253
ADNI,ADNI-010-04595,4595,10,ADNI2,76.6,Years,2,>=65,Male,White,6,Not Hispanic or Latino,Y,Yes,NA,NA,4/27/2012,6/30/2018,M,6/30/2018,M,16,Married,NA,NA,MCI,Elevated,Elevated,FBP,6MM,18,25,0.5,3.5,NA,NA,6,NA,1,26,NA,0,NA,NA,3,4,3,60,26,1,300,ε3/ε3,NA,-9.894621
ADNI,ADNI-010-04616,4616,10,ADNI2,84.9,Years,2,>=65,Male,More than one race,7,Not Hispanic or Latino,Y,NA,NA,NA,5/7/2012,NA,NA,NA,NA,18,Married,NA,NA,CN,Elevated,Elevated,FBP,6MM,6.67,10.67,0,0,NA,NA,0,NA,0,29,NA,0,NA,NA,15,15,7,63.64,43,6,72,ε3/ε3,NA,0.60529
ADNI,ADNI-010-04681,4681,10,ADNI2,71.8,Years,2,>=65,Female,White,6,Not Hispanic or Latino,NA,NA,NA,NA,NA,NA,NA,NA,NA,NA,NA,NA,NA,NA,NA,NA,NA,NA,NA,NA,NA,NA,NA,NA,NA,NA,NA,NA,NA,NA,NA,NA,NA,NA,NA,NA,NA,NA,NA,NA,NA,NA
ADNI,ADNI-010-04695,4695,10,ADNI2,68.3,Years,2,>=65,Male,White,6,Not Hispanic or Latino,NA,NA,NA,NA,NA,NA,NA,NA,NA,NA,NA,NA,NA,NA,NA,NA,NA,NA,NA,NA,NA,NA,NA,NA,NA,NA,NA,NA,NA,NA,NA,NA,NA,NA,NA,NA,NA,NA,NA,NA,NA,NA
ADNI,ADNI-010-04702,4702,10,ADNI2,72.6,Years,2,>=65,Female,White,6,Hispanic or Latino,NA,NA,NA,NA,NA,NA,NA,NA,NA,NA,NA,NA,NA,NA,NA,NA,NA,NA,NA,NA,NA,NA,NA,NA,NA,NA,NA,NA,NA,NA,NA,NA,NA,NA,NA,NA,NA,NA,NA,NA,NA,NA
ADNI,ADNI-010-04731,4731,10,ADNI2,82.7,Years,2,>=65,Female,Unknown,999,Not Hispanic or Latino,NA,NA,NA,NA,NA,NA,NA,NA,NA,NA,NA,NA,NA,NA,NA,NA,NA,NA,NA,NA,NA,NA,NA,NA,NA,NA,NA,NA,NA,NA,NA,NA,NA,NA,NA,NA,NA,NA,NA,NA,NA,NA
ADNI,ADNI-010-04735,4735,10,ADNI2,65.1,Years,2,>=65,Female,Unknown,999,Hispanic or Latino,NA,NA,NA,NA,NA,NA,NA,NA,NA,NA,NA,NA,NA,NA,NA,NA,NA,NA,NA,NA,NA,NA,NA,NA,NA,NA,NA,NA,NA,NA,NA,NA,NA,NA,NA,NA,NA,NA,NA,NA,NA,NA
ADNI,ADNI-010-04761,4761,10,ADNI2,78.3,Years,2,>=65,Female,Black or African American,3,Not Hispanic or Latino,NA,NA,NA,NA,NA,NA,NA,NA,NA,NA,NA,NA,NA,NA,NA,NA,NA,NA,NA,NA,NA,NA,NA,NA,NA,NA,NA,NA,NA,NA,NA,NA,NA,NA,NA,NA,NA,NA,NA,NA,NA,NA
ADNI,ADNI-010-04768,4768,10,ADNI2,61.8,Years,1,<65,Female,White,6,Not Hispanic or Latino,NA,NA,NA,NA,NA,NA,NA,NA,NA,NA,NA,NA,NA,NA,NA,NA,NA,NA,NA,NA,NA,NA,NA,NA,NA,NA,NA,NA,NA,NA,NA,NA,NA,NA,NA,NA,NA,NA,NA,NA,NA,NA
ADNI,ADNI-010-04791,4791,10,ADNI2,67.7,Years,2,>=65,Female,Unknown,999,Hispanic or Latino,Y,NA,NA,NA,10/8/2012,NA,NA,NA,NA,12,Never married,NA,NA,MCI,Non Elevated,Non Elevated,FBP,6MM,7.33,12.33,0.5,0.5,NA,NA,1,NA,5,29,NA,1,NA,NA,7,11,3,20,60,7,238,ε3/ε4,NA,-5.632256
ADNI,ADNI-010-04882,4882,10,ADNI2,76.4,Years,2,>=65,Male,White,6,Not Hispanic or Latino,NA,NA,NA,NA,NA,NA,NA,NA,NA,NA,NA,NA,NA,NA,NA,NA,NA,NA,NA,NA,NA,NA,NA,NA,NA,NA,NA,NA,NA,NA,NA,NA,NA,NA,NA,NA,NA,NA,NA,NA,NA,NA
ADNI,ADNI-010-04917,4917,10,ADNI2,75,Years,2,>=65,Male,White,6,Not Hispanic or Latino,Y,NA,NA,NA,9/27/2012,NA,NA,NA,NA,19,Married,NA,NA,MCI,Non Elevated,Non Elevated,FBP,6MM,9.33,19.33,0.5,2,NA,NA,8,NA,5,24,NA,10,NA,NA,9,12,5,100,22,2,170,ε3/ε3,NA,-10.05136
ADNI,ADNI-010-04985,4985,10,ADNI2,78.7,Years,2,>=65,Female,Black or African American,3,Not Hispanic or Latino,Y,NA,NA,NA,10/23/2012,NA,NA,NA,NA,13,Widowed,NA,NA,MCI,Elevated,Elevated,FBP,6MM,11,19,0.5,1,NA,NA,1,NA,3,26,NA,0,NA,NA,0,9,6,100,29,2,300,ε3/ε4,NA,-11.792554
ADNI,ADNI-010-05010,5010,10,ADNI2,73.8,Years,2,>=65,Male,White,6,Not Hispanic or Latino,NA,NA,NA,NA,NA,NA,NA,NA,NA,NA,NA,NA,NA,NA,NA,NA,NA,NA,NA,NA,NA,NA,NA,NA,NA,NA,NA,NA,NA,NA,NA,NA,NA,NA,NA,NA,NA,NA,NA,NA,NA,NA
ADNI,ADNI-010-05071,5071,10,ADNI2,76.1,Years,2,>=65,Male,Black or African American,3,Not Hispanic or Latino,Y,NA,NA,NA,2/19/2013,2/11/2014,NA,NA,NA,14,Married,NA,NA,DEM,Elevated,Elevated,FBP,6MM,17,27,1,4.5,NA,NA,21,NA,4,19,NA,8,NA,NA,0,2,4,100,16,4,300,ε4/ε4,NA,-18.267019
ADNI,ADNI-010-05085,5085,10,ADNI2,64.9,Years,1,<65,Male,Unknown,999,Hispanic or Latino,NA,NA,NA,NA,NA,NA,NA,NA,NA,NA,NA,NA,NA,NA,NA,NA,NA,NA,NA,NA,NA,NA,NA,NA,NA,NA,NA,NA,NA,NA,NA,NA,NA,NA,NA,NA,NA,NA,NA,NA,NA,NA
ADNI,ADNI-010-05104,5104,10,ADNI2,86.6,Years,2,>=65,Female,Black or African American,3,Not Hispanic or Latino,NA,NA,NA,NA,NA,NA,NA,NA,NA,NA,NA,NA,NA,NA,NA,NA,NA,NA,NA,NA,NA,NA,NA,NA,NA,NA,NA,NA,NA,NA,NA,NA,NA,NA,NA,NA,NA,NA,NA,NA,NA,NA
ADNI,ADNI-010-05117,5117,10,ADNI2,69.2,Years,2,>=65,Male,White,6,Not Hispanic or Latino,NA,NA,NA,NA,NA,NA,NA,NA,NA,NA,NA,NA,NA,NA,NA,NA,NA,NA,NA,NA,NA,NA,NA,NA,NA,NA,NA,NA,NA,NA,NA,NA,NA,NA,NA,NA,NA,NA,NA,NA,NA,NA
ADNI,ADNI-010-05137,5137,10,ADNI2,78.9,Years,2,>=65,Female,White,6,Not Hispanic or Latino,Y,NA,NA,NA,4/24/2013,NA,NA,NA,NA,19,Never married,NA,NA,CN,Non Elevated,Non Elevated,FBP,6MM,9,21,0,0,NA,NA,0,NA,2,29,NA,0,NA,NA,11,15,1,11.11,36,4,249,ε2/ε3,NA,-6.67687
ADNI,ADNI-010-05171,5171,10,ADNI2,72.8,Years,2,>=65,Female,White,6,Not Hispanic or Latino,Y,NA,NA,NA,7/24/2013,NA,NA,NA,NA,18,Married,NA,NA,CN,Non Elevated,Non Elevated,FBP,6MM,3.33,5.33,0,0,NA,NA,0,NA,1,30,NA,0,NA,NA,16,18,5,38.46,52,8,78,ε3/ε3,NA,2.068125
ADNI,ADNI-010-05182,5182,10,ADNI2,69.4,Years,2,>=65,Female,White,6,Not Hispanic or Latino,NA,NA,NA,NA,NA,NA,NA,NA,NA,NA,NA,NA,NA,NA,NA,NA,NA,NA,NA,NA,NA,NA,NA,NA,NA,NA,NA,NA,NA,NA,NA,NA,NA,NA,NA,NA,NA,NA,NA,NA,NA,NA
ADNI,ADNI-010-05192,5192,10,ADNI2,73.1,Years,2,>=65,Female,White,6,Not Hispanic or Latino,NA,NA,NA,NA,NA,NA,NA,NA,NA,NA,NA,NA,NA,NA,NA,NA,NA,NA,NA,NA,NA,NA,NA,NA,NA,NA,NA,NA,NA,NA,NA,NA,NA,NA,NA,NA,NA,NA,NA,NA,NA,NA
ADNI,ADNI-010-05264,5264,10,ADNI2,79.3,Years,2,>=65,Female,White,6,Not Hispanic or Latino,NA,NA,NA,NA,NA,NA,NA,NA,NA,NA,NA,NA,NA,NA,NA,NA,NA,NA,NA,NA,NA,NA,NA,NA,NA,NA,NA,NA,NA,NA,NA,NA,NA,NA,NA,NA,NA,NA,NA,NA,NA,NA
ADNI,ADNI-010-06206,6206,10,ADNI3,81.9,Years,2,>=65,Male,White,6,Not Hispanic or Latino,Y,NA,NA,NA,7/19/2018,NA,NA,NA,NA,16,Married,NA,NA,MCI,Elevated,Elevated,FBB,6MM,8.33,15.33,0.5,0.5,2.459459459,1.666666667,NA,70,NA,30,25,NA,NA,NA,9,12,6,100,28,2,104,ε3/ε4,NA,-2.191977
ADNI,ADNI-010-06523,6523,10,ADNI3,NA,Years,NA,NA,NA,NA,NA,NA,NA,NA,NA,NA,NA,NA,NA,NA,NA,NA,NA,NA,NA,NA,NA,NA,NA,NA,NA,NA,NA,NA,NA,NA,NA,NA,NA,NA,NA,NA,NA,NA,NA,NA,NA,NA,NA,NA,NA,NA,NA,NA
ADNI,ADNI-010-06617,6617,10,ADNI3,NA,Years,NA,NA,Female,Unknown,999,Unknown,NA,NA,NA,NA,NA,10/25/2018,NA,NA,NA,NA,NA,NA,NA,NA,NA,NA,NA,NA,NA,NA,NA,NA,NA,NA,NA,NA,NA,NA,NA,NA,NA,NA,NA,NA,NA,NA,NA,NA,NA,NA,NA,NA
ADNI,ADNI-010-06725,6725,10,ADNI3,81,Years,2,>=65,Male,White,6,Not Hispanic or Latino,NA,NA,NA,NA,NA,10/8/2020,NA,NA,NA,NA,NA,NA,NA,NA,NA,NA,NA,NA,NA,NA,NA,NA,NA,NA,NA,NA,NA,NA,NA,NA,NA,NA,NA,NA,NA,NA,NA,NA,NA,NA,NA,NA
ADNI,ADNI-010-06768,6768,10,ADNI3,78.4,Years,2,>=65,Female,White,6,Not Hispanic or Latino,Y,NA,NA,NA,8/14/2019,NA,NA,NA,NA,16,Married,NA,NA,DEM,Non Elevated,Non Elevated,FBB,6MM,13.67,24.67,0.5,4,1.205128205,NA,20,24,NA,21,15,12,NA,NA,0,6,8,100,38,2,300,ε3/ε3,NA,-17.605114
ADNI,ADNI-010-06780,6780,10,ADNI3,63.4,Years,1,<65,Female,White,6,Hispanic or Latino,Y,NA,NA,NA,9/3/2019,NA,NA,NA,NA,17,Married,NA,NA,CN,NA,NA,NA,NA,4.33,7.33,0,0.5,1.641025641,NA,NA,NA,NA,30,29,NA,NA,NA,19,19,NA,NA,NA,NA,50,NA,NA,3.999926
ADNI,ADNI-010-06865,6865,10,ADNI3,NA,Years,NA,NA,Female,White,6,Not Hispanic or Latino,NA,NA,NA,NA,NA,3/11/2020,NA,NA,NA,NA,NA,NA,NA,NA,NA,NA,NA,NA,NA,NA,NA,NA,NA,NA,NA,NA,NA,NA,NA,NA,NA,NA,NA,NA,NA,NA,NA,NA,NA,NA,NA,NA
ADNI,ADNI-010-06955,6955,10,ADNI3,59.4,Years,1,<65,Female,White,6,Unknown,NA,NA,NA,NA,NA,5/26/2021,NA,NA,NA,NA,NA,NA,NA,NA,NA,NA,NA,NA,NA,NA,NA,NA,NA,NA,NA,NA,NA,NA,NA,NA,NA,NA,NA,NA,NA,NA,NA,NA,NA,NA,NA,NA
ADNI,ADNI-010-06970,6970,10,ADNI3,84.4,Years,2,>=65,Male,White,6,Not Hispanic or Latino,NA,NA,NA,NA,NA,NA,NA,NA,NA,NA,NA,NA,NA,NA,NA,NA,NA,NA,NA,NA,NA,NA,NA,NA,NA,NA,NA,NA,NA,NA,NA,NA,NA,NA,NA,NA,NA,NA,NA,ε2/ε3,NA,NA
ADNI,ADNI-010-06975,6975,10,ADNI3,79.9,Years,2,>=65,Male,Black or African American,3,Not Hispanic or Latino,NA,NA,NA,NA,NA,NA,NA,NA,NA,NA,NA,NA,NA,NA,NA,NA,NA,NA,NA,NA,NA,NA,NA,NA,NA,NA,NA,NA,NA,NA,NA,NA,NA,NA,NA,NA,NA,NA,NA,NA,NA,NA
ADNI,ADNI-010-07034,7034,10,ADNI3,NA,Years,NA,NA,Female,Black or African American,3,Not Hispanic or Latino,NA,NA,NA,NA,NA,3/27/2025,NA,NA,NA,NA,NA,NA,NA,NA,NA,NA,NA,NA,NA,NA,NA,NA,NA,NA,NA,NA,NA,NA,NA,NA,NA,NA,NA,NA,NA,NA,NA,NA,NA,NA,NA,NA
ADNI,ADNI-010-07057,7057,10,ADNI3,72.4,Years,2,>=65,Male,Black or African American,3,Not Hispanic or Latino,NA,NA,NA,NA,NA,1/1/2024,NA,NA,NA,NA,NA,NA,NA,NA,NA,NA,NA,NA,NA,NA,NA,NA,NA,NA,NA,NA,NA,NA,NA,NA,NA,NA,NA,NA,NA,NA,NA,NA,NA,NA,NA,NA
ADNI,ADNI-010-07097,7097,10,ADNI3,74.1,Years,2,>=65,Male,Black or African American,3,Not Hispanic or Latino,NA,NA,NA,NA,NA,NA,NA,NA,NA,NA,NA,NA,NA,NA,NA,NA,NA,NA,NA,NA,NA,NA,NA,NA,NA,NA,NA,NA,NA,NA,NA,NA,NA,NA,NA,NA,NA,NA,NA,NA,NA,NA
ADNI,ADNI-010-07103,7103,10,ADNI3,57.9,Years,1,<65,Female,White,6,Hispanic or Latino,NA,NA,NA,NA,NA,3/27/2025,NA,NA,NA,NA,NA,NA,NA,NA,NA,NA,NA,NA,NA,NA,NA,NA,NA,NA,NA,NA,NA,NA,NA,NA,NA,NA,NA,NA,NA,NA,NA,NA,NA,NA,NA,NA
ADNI,ADNI-010-07107,7107,10,ADNI3,78.4,Years,2,>=65,Male,White,6,Hispanic or Latino,NA,NA,NA,NA,NA,9/20/2022,NA,NA,NA,NA,NA,NA,NA,NA,NA,NA,NA,NA,NA,NA,NA,NA,NA,NA,NA,NA,NA,NA,NA,NA,NA,NA,NA,NA,NA,NA,NA,NA,NA,NA,NA,NA
ADNI,ADNI-010-07110,7110,10,ADNI3,77.4,Years,2,>=65,Male,White,6,Not Hispanic or Latino,NA,NA,NA,NA,NA,12/31/2023,NA,NA,NA,NA,NA,NA,NA,NA,NA,NA,NA,NA,NA,NA,NA,NA,NA,NA,NA,NA,NA,NA,NA,NA,NA,NA,NA,NA,NA,NA,NA,NA,NA,NA,NA,NA
ADNI,ADNI-010-07118,7118,10,ADNI3,59.6,Years,1,<65,Female,Unknown,999,Not Hispanic or Latino,NA,NA,NA,NA,NA,1/6/2023,NA,NA,NA,NA,NA,NA,NA,NA,NA,NA,NA,NA,NA,NA,NA,NA,NA,NA,NA,NA,NA,NA,NA,NA,NA,NA,NA,NA,NA,NA,NA,NA,NA,NA,NA,NA
ADNI,ADNI-010-07124,7124,10,ADNI3,56.6,Years,1,<65,Male,Unknown,999,Hispanic or Latino,NA,NA,NA,NA,NA,6/3/2024,NA,NA,NA,NA,NA,NA,NA,NA,NA,NA,NA,NA,NA,NA,NA,NA,NA,NA,NA,NA,NA,NA,NA,NA,NA,NA,NA,NA,NA,NA,NA,NA,NA,NA,NA,NA
ADNI,ADNI-010-10824,10824,10,ADNI4,66.4,Years,2,>=65,Male,White,6,Not Hispanic or Latino,Y,NA,NA,NA,8/13/2025,NA,NA,NA,NA,16,Married,NA,NA,MCI,NA,NA,NA,NA,12.33,21.33,0.5,2,NA,NA,8,NA,NA,26,22,4,NA,NA,6,8,6,85.71,29,2,140,NA,NA,-8.735372
ADNI,ADNI-010-10825,10825,10,ADNI4,66.4,Years,2,>=65,Female,White,6,Not Hispanic or Latino,Y,NA,NA,NA,7/31/2025,NA,NA,NA,NA,18,Married,NA,NA,DEM,NA,NA,NA,NA,22.67,36.67,1,4.5,NA,NA,20,NA,NA,NA,15,0,NA,NA,0,0,6,100,26,1,300,NA,NA,-14.379065
ADNI,ADNI-010-10839,10839,10,ADNI4,72.9,Years,2,>=65,Male,White,6,Not Hispanic or Latino,Y,NA,NA,NA,7/23/2025,NA,NA,NA,NA,16,Married,NA,NA,MCI,NA,NA,NA,NA,14.67,25.67,0.5,4,NA,NA,18,NA,NA,25,19,33,NA,NA,0,21,4,100,23,-1,113,NA,NA,-11.821138
ADNI,ADNI-010-10857,10857,10,ADNI4,90.8,Years,2,>=65,Male,White,6,Not Hispanic or Latino,Y,NA,NA,NA,8/7/2025,NA,NA,NA,NA,20,Married,NA,NA,MCI,NA,NA,NA,NA,17.67,28.67,0.5,0.5,NA,NA,1,NA,NA,24,21,1,NA,NA,3,4,7,100,26,5,300,NA,NA,-14.194598
ADNI,ADNI-010-10858,10858,10,ADNI4,72.9,Years,2,>=65,Male,White,6,Not Hispanic or Latino,Y,NA,NA,NA,8/19/2025,NA,NA,NA,NA,16,Widowed,NA,NA,MCI,NA,NA,NA,NA,9,17,0.5,0.5,NA,NA,0,NA,NA,29,22,0,NA,NA,6,9,6,66.67,37,4,101,NA,NA,-5.389218
ADNI,ADNI-010-10859,10859,10,ADNI4,81.4,Years,2,>=65,Female,White,6,Not Hispanic or Latino,Y,NA,NA,NA,7/29/2025,NA,NA,NA,NA,18,Widowed,NA,NA,MCI,NA,NA,NA,NA,5,10,0.5,0.5,NA,NA,1,NA,NA,29,28,14,NA,NA,9,12,3,21.43,53,9,115,NA,NA,-3.287007
ADNI,ADNI-010-10866,10866,10,ADNI4,79.8,Years,2,>=65,Female,White,6,Not Hispanic or Latino,Y,NA,NA,NA,8/18/2025,NA,NA,NA,NA,14,Married,NA,NA,MCI,NA,NA,NA,NA,14.67,24.67,0.5,2.5,NA,NA,12,NA,NA,26,25,7,NA,NA,2,4,5,100,28,0,62,NA,NA,-8.943584
ADNI,ADNI-010-10867,10867,10,ADNI4,80.7,Years,2,>=65,Male,White,6,Not Hispanic or Latino,Y,NA,NA,NA,8/12/2025,NA,NA,NA,NA,18,Domestic Partnership,NA,NA,MCI,NA,NA,NA,NA,NA,NA,0.5,3,NA,NA,6,NA,NA,28,20,3,NA,NA,4,7,7,100,29,3,130,NA,NA,-8.46537
ADNI,ADNI-010-10868,10868,10,ADNI4,87.7,Years,2,>=65,Male,White,6,Not Hispanic or Latino,Y,NA,NA,NA,8/12/2025,NA,NA,NA,NA,16,Married,NA,NA,MCI,NA,NA,NA,NA,14.67,24.67,0.5,2.5,NA,NA,7,NA,NA,27,20,4,NA,NA,6,7,5,83.33,23,2,167,NA,NA,-8.834127
ADNI,ADNI-010-10869,10869,10,ADNI4,74.8,Years,2,>=65,Male,White,6,Not Hispanic or Latino,Y,NA,NA,NA,8/11/2025,NA,NA,NA,NA,18,Married,NA,NA,MCI,NA,NA,NA,NA,15.33,26.33,0.5,1.5,NA,NA,7,NA,NA,24,17,1,NA,NA,3,5,4,66.67,26,2,295,NA,NA,-13.63379
ADNI,ADNI-010-10870,10870,10,ADNI4,73.8,Years,2,>=65,Female,White,6,Not Hispanic or Latino,Y,NA,NA,NA,8/14/2025,NA,NA,NA,NA,18,Married,NA,NA,MCI,NA,NA,NA,NA,21.67,32.67,0.5,2.5,NA,NA,8,NA,NA,23,20,12,NA,NA,0,8,5,100,22,2,160,NA,NA,-14.369147
ADNI,ADNI-010-10871,10871,10,ADNI4,80.6,Years,2,>=65,Female,White,6,Not Hispanic or Latino,Y,NA,NA,NA,8/18/2025,NA,NA,NA,NA,20,Married,NA,NA,DEM,NA,NA,NA,NA,18.33,32.33,0.5,2.5,NA,NA,17,NA,NA,23,12,8,NA,NA,3,5,6,100,28,0,300,NA,NA,-15.045275
ADNI,ADNI-011-00027,27,11,ADNI1,80,Years,2,>=65,Female,White,6,Not Hispanic or Latino,NA,NA,NA,NA,NA,NA,NA,NA,NA,NA,NA,NA,NA,NA,NA,NA,NA,NA,NA,NA,NA,NA,NA,NA,NA,NA,NA,NA,NA,NA,NA,NA,NA,NA,NA,NA,NA,NA,NA,NA,NA,NA
ADNI,ADNI-011-00030,30,11,ADNI1,80,Years,2,>=65,Female,White,6,Not Hispanic or Latino,Y,NA,NA,NA,10/20/2005,NA,NA,NA,NA,19,Married,NA,NA,MCI,NA,NA,NA,NA,10,22,0.5,1,NA,NA,6,NA,1,29,NA,NA,1,34,3,7,10,90.91,36,6,139,ε3/ε3,-7.676434,-8.063818
ADNI,ADNI-011-00031,31,11,ADNI1,77.8,Years,2,>=65,Female,White,6,Not Hispanic or Latino,Y,Yes,NA,NA,10/24/2005,2/3/2022,NA,6/30/2022,M,18,Widowed,NA,NA,CN,NA,NA,NA,NA,1.67,1.67,0,0,NA,NA,0,NA,0,30,NA,NA,0,43,18,16,2,14.29,63,7,74,ε3/ε3,3.54615,3.807334
ADNI,ADNI-011-00032,32,11,ADNI1,78.8,Years,2,>=65,Male,White,6,Not Hispanic or Latino,NA,NA,NA,NA,NA,NA,NA,NA,NA,NA,NA,NA,NA,NA,NA,NA,NA,NA,NA,NA,NA,NA,NA,NA,NA,NA,NA,NA,NA,NA,NA,NA,NA,NA,NA,NA,NA,NA,NA,ε4/ε4,NA,NA
ADNI,ADNI-011-00042,42,11,ADNI1,72.9,Years,2,>=65,Male,White,6,Not Hispanic or Latino,Y,Yes,NA,NA,11/10/2005,6/30/2014,M,6/30/2014,M,18,Married,NA,NA,MCI,NA,NA,NA,NA,7,12,0.5,0.5,NA,NA,2,NA,1,30,NA,NA,0,47,1,11,8,88.89,29,6,101,ε3/ε3,-3.525113,-4.410174
ADNI,ADNI-011-00049,49,11,ADNI1,66.2,Years,2,>=65,Male,White,6,Not Hispanic or Latino,NA,NA,NA,NA,NA,NA,NA,NA,NA,NA,NA,NA,NA,NA,NA,NA,NA,NA,NA,NA,NA,NA,NA,NA,NA,NA,NA,NA,NA,NA,NA,NA,NA,NA,NA,NA,NA,NA,NA,ε3/ε4,NA,NA
ADNI,ADNI-011-00058,58,11,ADNI1,70.1,Years,2,>=65,Male,White,6,Not Hispanic or Latino,Y,NA,NA,NA,12/12/2005,NA,NA,NA,NA,16,Married,NA,NA,CN,NA,NA,NA,NA,4.67,9.67,0,0,NA,NA,0,NA,0,30,NA,NA,0,45,16,15,1,9.09,44,6,77,ε3/ε4,1.090981,1.05992
ADNI,ADNI-011-00061,61,11,ADNI1,77.1,Years,2,>=65,Female,Black or African American,3,Not Hispanic or Latino,Y,NA,NA,NA,12/15/2005,NA,NA,NA,NA,15,Widowed,NA,NA,CN,NA,NA,NA,NA,3,5,0,0,NA,NA,0,NA,1,29,NA,NA,0,41,6,8,2,25,34,3,87,ε3/ε3,-1.973968,-1.908777
ADNI,ADNI-011-00073,73,11,ADNI1,83.3,Years,2,>=65,Female,White,6,Not Hispanic or Latino,NA,NA,NA,NA,NA,NA,NA,NA,NA,NA,NA,NA,NA,NA,NA,NA,NA,NA,NA,NA,NA,NA,NA,NA,NA,NA,NA,NA,NA,NA,NA,NA,NA,NA,NA,NA,NA,NA,NA,ε3/ε4,NA,NA
ADNI,ADNI-011-00078,78,11,ADNI1,76,Years,2,>=65,Female,White,6,Not Hispanic or Latino,Y,Yes,NA,NA,1/12/2006,6/30/2007,M,6/30/2007,M,18,Married,NA,NA,DEM,NA,NA,NA,NA,17.33,26.33,0.5,3,NA,NA,9,NA,1,24,NA,NA,3,25,8,8,4,100,13,3,187,ε3/ε4,-10.341801,-10.569976
ADNI,ADNI-011-00081,81,11,ADNI1,70.6,Years,2,>=65,Male,White,6,Not Hispanic or Latino,Y,NA,NA,NA,1/25/2006,NA,NA,NA,NA,18,Married,NA,NA,CN,NA,NA,NA,NA,4,5,0,0,NA,NA,0,NA,0,30,NA,NA,0,49,9,12,2,14.29,57,7,75,ε3/ε4,1.03913,0.679671
ADNI,ADNI-011-00082,82,11,ADNI1,73.2,Years,2,>=65,Male,White,6,Not Hispanic or Latino,NA,NA,NA,NA,NA,NA,NA,NA,NA,NA,NA,NA,NA,NA,NA,NA,NA,NA,NA,NA,NA,NA,NA,NA,NA,NA,NA,NA,NA,NA,NA,NA,NA,NA,NA,NA,NA,NA,NA,NA,NA,NA
ADNI,ADNI-011-00083,83,11,ADNI1,73.3,Years,2,>=65,Male,White,6,Not Hispanic or Latino,Y,NA,NA,NA,1/19/2006,NA,NA,NA,NA,17,Married,NA,NA,DEM,NA,NA,NA,NA,18,28,0.5,2.5,NA,NA,9,NA,1,22,NA,NA,2,34,0,3,4,100,18,0,123,ε4/ε4,-14.489659,-14.579392
ADNI,ADNI-011-00084,84,11,ADNI1,75.3,Years,2,>=65,Female,White,6,Not Hispanic or Latino,Y,NA,NA,NA,1/24/2006,NA,NA,NA,NA,14,Married,NA,NA,DEM,NA,NA,NA,NA,14,23,0.5,2,NA,NA,10,NA,0,24,NA,NA,2,35,0,5,6,100,25,3,76,ε3/ε4,-12.170554,-11.189704
ADNI,ADNI-011-00093,93,11,ADNI1,77.3,Years,2,>=65,Female,White,6,Not Hispanic or Latino,Y,NA,NA,NA,1/26/2006,NA,NA,NA,NA,16,Widowed,NA,NA,DEM,NA,NA,NA,NA,22.67,36.67,1,8,NA,NA,20,NA,2,23,NA,NA,14,NA,0,4,4,100,17,1,NA,ε3/ε4,-16.649993,-16.649993
ADNI,ADNI-011-00099,99,11,ADNI1,69.2,Years,2,>=65,Female,White,6,Not Hispanic or Latino,NA,NA,NA,NA,NA,NA,NA,NA,NA,NA,NA,NA,NA,NA,NA,NA,NA,NA,NA,NA,NA,NA,NA,NA,NA,NA,NA,NA,NA,NA,NA,NA,NA,NA,NA,NA,NA,NA,NA,ε3/ε3,NA,NA
ADNI,ADNI-011-00126,126,11,ADNI1,77.6,Years,2,>=65,Female,White,6,Not Hispanic or Latino,Y,NA,NA,NA,2/16/2006,NA,NA,NA,NA,14,Divorced,NA,NA,MCI,NA,NA,NA,NA,9.67,14.67,0.5,1,NA,NA,0,NA,2,25,NA,NA,0,45,0,8,7,87.5,35,3,69,ε3/ε4,-8.260714,-8.026369
ADNI,ADNI-011-00139,139,11,ADNI1,65.9,Years,2,>=65,Female,White,6,Not Hispanic or Latino,Y,NA,NA,NA,2/2/2006,NA,NA,NA,NA,13,Married,NA,NA,DEM,NA,NA,NA,NA,14.33,22.33,0.5,3.5,NA,NA,10,NA,1,25,NA,NA,2,40,0,2,5,62.5,32,4,121,ε4/ε4,-10.31002,-10.948031
ADNI,ADNI-011-00203,203,11,ADNI1,83.5,Years,2,>=65,Female,White,6,Not Hispanic or Latino,NA,NA,NA,NA,NA,NA,NA,NA,NA,NA,NA,NA,NA,NA,NA,NA,NA,NA,NA,NA,NA,NA,NA,NA,NA,NA,NA,NA,NA,NA,NA,NA,NA,NA,NA,NA,NA,NA,NA,ε3/ε4,NA,NA
ADNI,ADNI-011-00217,217,11,ADNI1,83.6,Years,2,>=65,Female,White,6,Not Hispanic or Latino,Y,NA,NA,NA,2/28/2006,NA,NA,NA,NA,18,Married,NA,NA,MCI,NA,NA,NA,NA,9.33,18.33,0.5,1,NA,NA,0,NA,0,27,NA,NA,0,46,1,7,4,66.67,30,1,76,ε3/ε3,-8.25407,-8.35151
ADNI,ADNI-011-00267,267,11,ADNI1,80.1,Years,2,>=65,Female,White,6,Not Hispanic or Latino,NA,NA,NA,NA,NA,NA,NA,NA,NA,NA,NA,NA,NA,NA,NA,NA,NA,NA,NA,NA,NA,NA,NA,NA,NA,NA,NA,NA,NA,NA,NA,NA,NA,NA,NA,NA,NA,NA,NA,ε3/ε3,NA,NA
ADNI,ADNI-011-00331,331,11,ADNI1,64.6,Years,1,<65,Female,White,6,Not Hispanic or Latino,Y,Yes,NA,NA,4/6/2006,6/30/2016,M,6/30/2016,M,14,Married,NA,NA,MCI,NA,NA,NA,NA,12,22,0.5,2,NA,NA,9,NA,5,27,NA,NA,3,40,0,6,7,100,31,1,62,ε4/ε4,-9.648114,-8.66523
ADNI,ADNI-011-00333,333,11,ADNI1,74.3,Years,2,>=65,Male,White,6,Not Hispanic or Latino,NA,NA,NA,NA,NA,NA,NA,NA,NA,NA,NA,NA,NA,NA,NA,NA,NA,NA,NA,NA,NA,NA,NA,NA,NA,NA,NA,NA,NA,NA,NA,NA,NA,NA,NA,NA,NA,NA,NA,ε3/ε3,NA,NA
ADNI,ADNI-011-00338,338,11,ADNI1,73.2,Years,2,>=65,Female,White,6,Not Hispanic or Latino,NA,NA,NA,NA,NA,NA,NA,NA,NA,NA,NA,NA,NA,NA,NA,NA,NA,NA,NA,NA,NA,NA,NA,NA,NA,NA,NA,NA,NA,NA,NA,NA,NA,NA,NA,NA,NA,NA,NA,ε3/ε4,NA,NA
ADNI,ADNI-011-00342,342,11,ADNI1,65.4,Years,2,>=65,Female,White,6,Not Hispanic or Latino,NA,NA,NA,NA,NA,NA,NA,NA,NA,NA,NA,NA,NA,NA,NA,NA,NA,NA,NA,NA,NA,NA,NA,NA,NA,NA,NA,NA,NA,NA,NA,NA,NA,NA,NA,NA,NA,NA,NA,ε3/ε3,NA,NA
ADNI,ADNI-011-00376,376,11,ADNI1,70.5,Years,2,>=65,Male,White,6,Not Hispanic or Latino,Y,Yes,NA,NA,4/20/2006,6/30/2013,M,6/30/2013,M,15,Married,NA,NA,MCI,NA,NA,NA,NA,6,9,0.5,2.5,NA,NA,0,NA,3,28,NA,NA,3,52,3,6,3,37.5,34,4,58,ε3/ε3,-3.124563,-3.157111
ADNI,ADNI-011-00385,385,11,ADNI1,79.6,Years,2,>=65,Male,White,6,Not Hispanic or Latino,NA,NA,NA,NA,NA,NA,NA,NA,NA,NA,NA,NA,NA,NA,NA,NA,NA,NA,NA,NA,NA,NA,NA,NA,NA,NA,NA,NA,NA,NA,NA,NA,NA,NA,NA,NA,NA,NA,NA,ε3/ε3,NA,NA
ADNI,ADNI-011-00387,387,11,ADNI1,83.2,Years,2,>=65,Female,White,6,Not Hispanic or Latino,NA,NA,NA,NA,NA,NA,NA,NA,NA,NA,NA,NA,NA,NA,NA,NA,NA,NA,NA,NA,NA,NA,NA,NA,NA,NA,NA,NA,NA,NA,NA,NA,NA,NA,NA,NA,NA,NA,NA,ε3/ε3,NA,NA
ADNI,ADNI-011-00388,388,11,ADNI1,71.2,Years,2,>=65,Male,White,6,Not Hispanic or Latino,Y,Yes,NA,NA,4/25/2006,6/30/2015,M,6/30/2015,M,15,Married,NA,NA,MCI,NA,NA,NA,NA,14.33,21.33,0.5,2,NA,NA,4,NA,3,25,NA,NA,7,26,4,11,5,62.5,31,4,109,ε4/ε4,-8.97857,-7.990266
ADNI,ADNI-011-00604,604,11,ADNI1,86.6,Years,2,>=65,Male,White,6,Not Hispanic or Latino,Y,NA,NA,NA,6/20/2006,NA,NA,NA,NA,14,Married,NA,NA,MCI,NA,NA,NA,NA,11.67,16.67,0.5,1,NA,NA,1,NA,2,25,NA,NA,2,28,3,7,5,83.33,24,3,87,ε3/ε3,-9.068678,-7.729144
ADNI,ADNI-011-00613,613,11,ADNI1,84,Years,2,>=65,Female,White,6,Not Hispanic or Latino,Y,NA,NA,NA,7/24/2006,NA,NA,NA,NA,11,Widowed,NA,NA,MCI,NA,NA,NA,NA,13.67,21.67,0.5,2.5,NA,NA,7,NA,1,24,NA,NA,1,18,0,3,5,55.56,24,6,125,ε3/ε3,-12.277829,-10.838382
ADNI,ADNI-011-00625,625,11,ADNI1,75.9,Years,2,>=65,Male,White,6,Not Hispanic or Latino,Y,NA,NA,NA,7/10/2006,NA,NA,NA,NA,6,Married,NA,NA,MCI,NA,NA,NA,NA,12,22,0.5,1,NA,NA,1,NA,3,24,NA,NA,0,17,0,1,5,71.43,24,5,212,ε3/ε3,-13.415305,-13.165477
ADNI,ADNI-011-00838,838,11,ADNI1,72.5,Years,2,>=65,Male,White,6,Not Hispanic or Latino,NA,NA,NA,NA,NA,NA,NA,NA,NA,NA,NA,NA,NA,NA,NA,NA,NA,NA,NA,NA,NA,NA,NA,NA,NA,NA,NA,NA,NA,NA,NA,NA,NA,NA,NA,NA,NA,NA,NA,ε3/ε4,NA,NA
ADNI,ADNI-011-00855,855,11,ADNI1,75.7,Years,2,>=65,Male,White,6,Not Hispanic or Latino,Y,NA,NA,NA,9/19/2006,NA,NA,NA,NA,12,Married,NA,NA,MCI,NA,NA,NA,NA,12.33,19.33,0.5,1.5,NA,NA,1,NA,2,25,NA,NA,2,11,0,2,4,50,30,4,141,ε3/ε3,-11.593612,-9.761178
ADNI,ADNI-011-00857,857,11,ADNI1,76,Years,2,>=65,Female,White,6,Not Hispanic or Latino,NA,NA,NA,NA,NA,NA,NA,NA,NA,NA,NA,NA,NA,NA,NA,NA,NA,NA,NA,NA,NA,NA,NA,NA,NA,NA,NA,NA,NA,NA,NA,NA,NA,NA,NA,NA,NA,NA,NA,ε3/ε3,NA,NA
ADNI,ADNI-011-00887,887,11,ADNI1,73.7,Years,2,>=65,Female,White,6,Not Hispanic or Latino,Y,NA,NA,NA,10/6/2006,NA,NA,NA,NA,8,Married,NA,NA,MCI,NA,NA,NA,NA,18.33,30.33,0.5,2,NA,NA,1,NA,0,24,NA,NA,1,13,0,5,3,75,21,-1,300,ε3/ε4,-14.846859,-15.053082
ADNI,ADNI-011-00916,916,11,ADNI1,79.8,Years,2,>=65,Male,White,6,Not Hispanic or Latino,Y,NA,NA,NA,9/26/2006,NA,NA,NA,NA,16,Married,NA,NA,DEM,NA,NA,NA,NA,22,34,1,4.5,NA,NA,0,NA,1,21,NA,NA,2,16,2,3,6,100,26,2,293,ε4/ε4,-16.532489,-16.97508
ADNI,ADNI-011-00926,926,11,ADNI1,71.5,Years,2,>=65,Female,White,6,Not Hispanic or Latino,Y,Yes,NA,NA,10/16/2006,2/23/2022,NA,6/30/2022,M,16,Married,NA,NA,CN,NA,NA,NA,NA,6,9,0,0,NA,NA,0,NA,1,29,NA,NA,1,45,11,12,12,100,40,8,81,ε3/ε3,-0.670779,-0.824496
ADNI,ADNI-011-00942,942,11,ADNI1,63.6,Years,1,<65,Male,Black or African American,3,Not Hispanic or Latino,NA,NA,NA,NA,NA,NA,NA,NA,NA,NA,NA,NA,NA,NA,NA,NA,NA,NA,NA,NA,NA,NA,NA,NA,NA,NA,NA,NA,NA,NA,NA,NA,NA,NA,NA,NA,NA,NA,NA,ε3/ε3,NA,NA
ADNI,ADNI-011-00963,963,11,ADNI1,72.6,Years,2,>=65,Male,White,6,Not Hispanic or Latino,Y,Yes,NA,NA,10/17/2006,6/30/2010,M,6/30/2010,M,16,Married,NA,NA,CN,NA,NA,NA,NA,3.33,6.33,0,0,NA,NA,0,NA,0,30,NA,NA,0,36,14,15,5,45.45,39,7,93,ε3/ε4,0.156145,0.549699
ADNI,ADNI-011-01046,1046,11,ADNI1,71.6,Years,2,>=65,Male,White,6,Not Hispanic or Latino,Y,NA,NA,NA,11/16/2006,NA,NA,NA,NA,20,Married,NA,NA,MCI,NA,NA,NA,NA,11.67,17.67,0.5,2,NA,NA,0,NA,0,25,NA,NA,0,27,0,4,4,40,39,4,243,ε3/ε4,-10.025189,-11.088876
ADNI,ADNI-011-01104,1104,11,ADNI1,64.5,Years,1,<65,Female,American Indian or Alaskan Native,1,Not Hispanic or Latino,Y,NA,NA,NA,12/5/2006,NA,NA,NA,NA,12,Married,NA,NA,MCI,NA,NA,NA,NA,16.67,24.67,0.5,0.5,NA,NA,2,NA,3,25,NA,NA,3,18,4,11,6,85.71,23,3,123,ε4/ε4,-10.80223,-9.323541
ADNI,ADNI-011-01111,1111,11,ADNI1,72.4,Years,2,>=65,Female,White,6,Not Hispanic or Latino,NA,NA,NA,NA,NA,NA,NA,NA,NA,NA,NA,NA,NA,NA,NA,NA,NA,NA,NA,NA,NA,NA,NA,NA,NA,NA,NA,NA,NA,NA,NA,NA,NA,NA,NA,NA,NA,NA,NA,ε3/ε3,NA,NA
ADNI,ADNI-011-01126,1126,11,ADNI1,80.5,Years,2,>=65,Male,White,6,Not Hispanic or Latino,Y,NA,NA,NA,12/14/2006,NA,NA,NA,NA,18,Married,NA,NA,MCI,NA,NA,NA,NA,15,24,0.5,0.5,NA,NA,2,NA,0,26,NA,NA,0,42,0,6,8,100,31,3,103,ε3/ε3,-8.743565,-9.186119
ADNI,ADNI-011-01190,1190,11,ADNI1,76.5,Years,2,>=65,Female,White,6,Not Hispanic or Latino,Y,Yes,NA,NA,1/17/2007,6/30/2023,M,6/30/2023,M,13,Married,NA,NA,CN,NA,NA,NA,NA,2.33,3.33,0,0,NA,NA,0,NA,1,30,NA,NA,2,40,18,20,5,38.46,43,11,76,ε3/ε3,2.732346,3.223064
ADNI,ADNI-011-01247,1247,11,ADNI1,72.6,Years,2,>=65,Female,White,6,Not Hispanic or Latino,Y,NA,NA,NA,2/8/2007,NA,NA,NA,NA,9,Married,NA,NA,MCI,NA,NA,NA,NA,13.33,23.33,0.5,2,NA,NA,1,NA,1,24,NA,NA,1,17,3,7,6,75,25,6,276,ε3/ε3,-12.55682,-12.951355
ADNI,ADNI-011-01262,1262,11,ADNI1,72.7,Years,2,>=65,Female,White,6,Not Hispanic or Latino,Y,NA,NA,NA,3/1/2007,NA,NA,NA,NA,12,Divorced,NA,NA,DEM,NA,NA,NA,NA,28,41,0.5,3.5,NA,NA,7,NA,2,21,NA,NA,2,21,0,1,0,NA,13,-2,300,ε3/ε3,-16.61468,-17.605114
ADNI,ADNI-011-01289,1289,11,ADNI1,77.4,Years,2,>=65,Female,White,6,Not Hispanic or Latino,Y,NA,NA,NA,2/20/2007,NA,NA,NA,NA,12,Widowed,NA,NA,DEM,NA,NA,NA,NA,22,32,0.5,4,NA,NA,10,NA,0,20,NA,NA,5,40,0,2,6,100,24,2,101,ε3/ε4,-15.602855,-15.801731
ADNI,ADNI-011-01306,1306,11,ADNI1,74.6,Years,2,>=65,Female,White,6,Not Hispanic or Latino,Y,NA,NA,NA,2/23/2007,NA,NA,NA,NA,14,Married,NA,NA,CN,NA,NA,NA,NA,6.67,9.67,0,0,NA,NA,0,NA,0,29,NA,NA,0,43,10,11,2,22.22,47,3,65,ε3/ε4,-0.633269,-0.058559
ADNI,ADNI-011-02101,2101,11,ADNIGO,73,Years,2,>=65,Female,White,6,Not Hispanic or Latino,NA,NA,NA,NA,NA,NA,NA,NA,NA,NA,NA,NA,NA,NA,NA,NA,NA,NA,NA,NA,NA,NA,NA,NA,NA,NA,NA,NA,NA,NA,NA,NA,NA,NA,NA,NA,NA,NA,NA,NA,NA,NA
ADNI,ADNI-011-02105,2105,11,ADNIGO,76.6,Years,2,>=65,Male,White,6,Not Hispanic or Latino,NA,NA,NA,NA,NA,NA,NA,NA,NA,NA,NA,NA,NA,NA,NA,NA,NA,NA,NA,NA,NA,NA,NA,NA,NA,NA,NA,NA,NA,NA,NA,NA,NA,NA,NA,NA,NA,NA,NA,NA,NA,NA
ADNI,ADNI-011-02126,2126,11,ADNIGO,84,Years,2,>=65,Female,White,6,Not Hispanic or Latino,NA,NA,NA,NA,NA,NA,NA,NA,NA,NA,NA,NA,NA,NA,NA,NA,NA,NA,NA,NA,NA,NA,NA,NA,NA,NA,NA,NA,NA,NA,NA,NA,NA,NA,NA,NA,NA,NA,NA,NA,NA,NA
ADNI,ADNI-011-02165,2165,11,ADNIGO,67.2,Years,2,>=65,Male,White,6,Not Hispanic or Latino,NA,NA,NA,NA,NA,NA,NA,NA,NA,NA,NA,NA,NA,NA,NA,NA,NA,NA,NA,NA,NA,NA,NA,NA,NA,NA,NA,NA,NA,NA,NA,NA,NA,NA,NA,NA,NA,NA,NA,NA,NA,NA
ADNI,ADNI-011-02185,2185,11,ADNIGO,73,Years,2,>=65,Male,White,6,Not Hispanic or Latino,Y,Yes,NA,NA,1/4/2011,10/8/2020,NA,6/30/2020,M,17,Married,NA,NA,MCI,Non Elevated,Non Elevated,FBP,6MM,3.67,8.67,0.5,2,NA,NA,3,NA,4,29,NA,NA,7,NA,9,12,3,30,42,3,136,ε3/ε3,NA,-2.65565
ADNI,ADNI-011-02308,2308,11,ADNIGO,74.9,Years,2,>=65,Male,White,6,Not Hispanic or Latino,Y,NA,NA,NA,3/15/2011,NA,NA,NA,NA,15,Divorced,NA,NA,MCI,Non Elevated,Non Elevated,FBP,6MM,6,9,0.5,0.5,NA,NA,0,NA,2,29,NA,NA,1,NA,11,14,6,54.55,48,7,108,ε3/ε3,NA,-1.002855
ADNI,ADNI-011-02339,2339,11,ADNIGO,67.1,Years,2,>=65,Female,Black or African American,3,Not Hispanic or Latino,NA,NA,NA,NA,NA,NA,NA,NA,NA,NA,NA,NA,NA,NA,NA,NA,NA,NA,NA,NA,NA,NA,NA,NA,NA,NA,NA,NA,NA,NA,NA,NA,NA,NA,NA,NA,NA,NA,NA,NA,NA,NA
ADNI,ADNI-011-04027,4027,11,ADNI2,68,Years,2,>=65,Female,White,6,Not Hispanic or Latino,NA,NA,NA,NA,NA,NA,NA,NA,NA,NA,NA,NA,NA,NA,NA,NA,NA,NA,NA,NA,NA,NA,NA,NA,NA,NA,NA,NA,NA,NA,NA,NA,NA,NA,NA,NA,NA,NA,NA,NA,NA,NA
ADNI,ADNI-011-04039,4039,11,ADNI2,55.9,Years,1,<65,Male,White,6,Not Hispanic or Latino,Y,Yes,NA,NA,6/14/2011,2/22/2015,NA,6/30/2015,M,19,Married,NA,NA,DEM,Elevated,Elevated,FBP,6MM,18,28,1,4.5,NA,NA,19,NA,1,21,NA,14,NA,NA,1,3,3,100,21,1,NA,ε3/ε4,NA,-16.458019
ADNI,ADNI-011-04058,4058,11,ADNI2,84.6,Years,2,>=65,Female,White,6,Not Hispanic or Latino,Y,Yes,NA,NA,6/13/2011,6/30/2017,M,6/30/2017,M,16,Widowed,NA,NA,MCI,Elevated,Elevated,FBP,6MM,15,27,0.5,1.5,NA,NA,1,NA,0,29,NA,0,NA,NA,0,4,6,85.71,27,4,240,ε3/ε4,NA,-10.254449
ADNI,ADNI-011-04068,4068,11,ADNI2,71.4,Years,2,>=65,Male,White,6,Not Hispanic or Latino,NA,NA,NA,NA,NA,NA,NA,NA,NA,NA,NA,NA,NA,NA,NA,NA,NA,NA,NA,NA,NA,NA,NA,NA,NA,NA,NA,NA,NA,NA,NA,NA,NA,NA,NA,NA,NA,NA,NA,NA,NA,NA
ADNI,ADNI-011-04079,4079,11,ADNI2,64.5,Years,1,<65,Female,White,6,Not Hispanic or Latino,Y,NA,NA,NA,7/6/2011,NA,NA,NA,NA,20,Divorced,NA,NA,MCI,Elevated,Elevated,FBP,6MM,19.33,28.33,0.5,2.5,NA,NA,3,NA,2,25,NA,13,NA,NA,4,6,2,100,18,1,153,ε3/ε4,NA,-10.374675
ADNI,ADNI-011-04080,4080,11,ADNI2,78.6,Years,2,>=65,Female,White,6,Not Hispanic or Latino,Y,NA,NA,NA,7/12/2011,NA,NA,NA,NA,16,Widowed,NA,NA,CN,Non Elevated,Elevated,FBP,6MM,7.33,12.33,0,0,NA,NA,0,NA,0,28,NA,0,NA,NA,18,18,9,100,31,7,90,ε3/ε3,NA,-0.447183
ADNI,ADNI-011-04093,4093,11,ADNI2,70.1,Years,2,>=65,Female,White,6,Not Hispanic or Latino,Y,NA,NA,NA,7/25/2011,NA,NA,NA,NA,16,Married,NA,NA,CN,Elevated,Non Elevated,FBP,6MM,6,11,0,0,NA,NA,0,NA,0,29,NA,0,NA,NA,9,11,3,25,56,3,115,ε3/ε3,NA,-2.247558
ADNI,ADNI-011-04263,4263,11,ADNI2,74.4,Years,2,>=65,Male,White,6,Not Hispanic or Latino,Y,Yes,NA,NA,10/18/2011,6/30/2015,M,6/30/2015,M,20,Married,NA,NA,MCI,Elevated,Elevated,FBP,6MM,12.67,19.67,0.5,2.5,NA,NA,4,NA,4,27,NA,10,NA,NA,2,11,7,87.5,31,3,140,ε3/ε4,NA,-8.509617
ADNI,ADNI-011-04284,4284,11,ADNI2,71.8,Years,2,>=65,Male,White,6,Not Hispanic or Latino,NA,NA,NA,NA,NA,NA,NA,NA,NA,NA,NA,NA,NA,NA,NA,NA,NA,NA,NA,NA,NA,NA,NA,NA,NA,NA,NA,NA,NA,NA,NA,NA,NA,NA,NA,NA,NA,NA,NA,NA,NA,NA
ADNI,ADNI-011-04306,4306,11,ADNI2,56.4,Years,1,<65,Male,White,6,Not Hispanic or Latino,NA,NA,NA,NA,NA,NA,NA,NA,NA,NA,NA,NA,NA,NA,NA,NA,NA,NA,NA,NA,NA,NA,NA,NA,NA,NA,NA,NA,NA,NA,NA,NA,NA,NA,NA,NA,NA,NA,NA,NA,NA,NA
ADNI,ADNI-011-04328,4328,11,ADNI2,67.6,Years,2,>=65,Female,Native Hawaiian or Other Pacific Islander,4,Not Hispanic or Latino,Y,NA,NA,NA,11/21/2011,NA,NA,NA,NA,14,Married,NA,NA,MCI,Non Elevated,Non Elevated,FBP,6MM,8.33,14.33,0.5,0.5,NA,NA,0,NA,1,29,NA,0,NA,NA,6,7,3,33.33,37,5,140,ε3/ε4,NA,-4.104442
ADNI,ADNI-011-04401,4401,11,ADNI2,67.5,Years,2,>=65,Female,White,6,Not Hispanic or Latino,Y,NA,NA,NA,12/15/2011,NA,NA,NA,NA,20,Married,NA,NA,CN,Non Elevated,Non Elevated,FBP,6MM,3.67,4.67,0,0,NA,NA,0,NA,0,30,NA,0,NA,NA,17,16,2,13.33,64,6,43,ε3/ε4,NA,4.309421
ADNI,ADNI-011-04576,4576,11,ADNI2,70.6,Years,2,>=65,Female,Black or African American,3,Not Hispanic or Latino,Y,NA,NA,NA,3/26/2012,NA,NA,NA,NA,14,Divorced,NA,NA,CN,Non Elevated,Non Elevated,FBP,6MM,5.33,9.33,0,0,NA,NA,0,NA,0,30,NA,0,NA,NA,17,18,4,28.57,57,7,48,ε3/ε3,NA,2.486271
ADNI,ADNI-011-04577,4577,11,ADNI2,84.7,Years,2,>=65,Male,Black or African American,3,Not Hispanic or Latino,Y,NA,NA,NA,3/28/2012,NA,NA,NA,NA,20,Married,NA,NA,CN,Elevated,Non Elevated,FBP,6MM,10.67,15.67,0,0,NA,NA,0,NA,0,29,NA,6,NA,NA,11,11,2,25,38,1,142,ε4/ε4,NA,-2.708179
ADNI,ADNI-011-04615,4615,11,ADNI2,86.5,Years,2,>=65,Male,White,6,Not Hispanic or Latino,Y,Yes,NA,NA,4/12/2012,6/30/2018,M,6/30/2018,M,17,Married,NA,NA,DEM,Elevated,Elevated,FBP,6MM,15.33,26.33,1,7,NA,NA,18,NA,2,26,NA,0,NA,NA,2,4,6,100,22,3,299,ε3/ε3,NA,-11.731794
ADNI,ADNI-011-04668,4668,11,ADNI2,70.9,Years,2,>=65,Male,White,6,Not Hispanic or Latino,Y,NA,NA,NA,5/3/2012,NA,NA,NA,NA,20,Married,NA,NA,MCI,Elevated,Elevated,FBP,6MM,14.33,25.33,0.5,2.5,NA,NA,8,NA,2,26,NA,12,NA,NA,1,1,5,100,21,2,226,ε3/ε4,NA,-11.853813
ADNI,ADNI-011-06076,6076,11,ADNI3,58.8,Years,1,<65,Female,More than one race,7,Hispanic or Latino,Y,NA,NA,NA,10/24/2017,NA,NA,NA,NA,18,Married,NA,NA,CN,Non Elevated,Elevated,FBB,6MM,4.67,6.67,0,0,1.205128205,1.307692308,1,74,NA,29,28,0,NA,NA,20,18,2,16.67,53,5,48,ε3/ε4,NA,3.533528
ADNI,ADNI-011-06087,6087,11,ADNI3,68.5,Years,2,>=65,Female,White,6,Hispanic or Latino,NA,NA,NA,NA,NA,2/1/2018,NA,NA,NA,NA,NA,NA,NA,NA,NA,NA,NA,NA,NA,NA,NA,NA,NA,NA,NA,NA,NA,NA,NA,NA,NA,NA,NA,NA,NA,NA,NA,NA,NA,NA,NA,NA
ADNI,ADNI-011-06109,6109,11,ADNI3,67.7,Years,2,>=65,Male,White,6,Not Hispanic or Latino,NA,NA,NA,NA,NA,1/15/2018,NA,NA,NA,NA,NA,NA,NA,NA,NA,NA,NA,NA,NA,NA,NA,NA,NA,NA,NA,NA,NA,NA,NA,NA,NA,NA,NA,NA,NA,NA,NA,NA,NA,NA,NA,NA
ADNI,ADNI-011-06145,6145,11,ADNI3,70.3,Years,2,>=65,Female,White,6,Not Hispanic or Latino,Y,NA,NA,NA,3/13/2018,NA,NA,NA,NA,16,Married,NA,NA,CN,Non Elevated,Non Elevated,FBB,6MM,3.67,6.67,0,0,1.051282051,1,0,74,NA,30,27,0,NA,NA,18,19,4,28.57,55,9,47,ε3/ε3,NA,3.862453
ADNI,ADNI-011-06148,6148,11,ADNI3,78.5,Years,2,>=65,Female,White,6,Not Hispanic or Latino,Y,NA,NA,NA,3/6/2018,NA,NA,NA,NA,19,Married,NA,NA,CN,Non Elevated,Non Elevated,FBB,6MM,3.67,7.67,0,0,1.435897436,1.230769231,0,74,NA,29,29,0,NA,NA,11,12,4,28.57,54,7,54,ε2/ε3,NA,0.155042
ADNI,ADNI-011-06199,6199,11,ADNI3,69.2,Years,2,>=65,Male,White,6,Not Hispanic or Latino,Y,NA,NA,NA,3/20/2018,2/27/2024,NA,NA,NA,16,Married,NA,NA,CN,Elevated,Elevated,FBB,6MM,9,17,0,0.5,1.205128205,1.358974359,0,66,NA,28,20,0,NA,NA,11,15,1,12.5,40,0,166,ε4/ε4,NA,-5.498551
ADNI,ADNI-011-06210,6210,11,ADNI3,66.7,Years,2,>=65,Female,White,6,Not Hispanic or Latino,NA,NA,NA,NA,NA,3/27/2018,NA,NA,NA,NA,NA,NA,NA,NA,NA,NA,NA,NA,NA,NA,NA,NA,NA,NA,NA,NA,NA,NA,NA,NA,NA,NA,NA,NA,NA,NA,NA,NA,NA,NA,NA,NA
ADNI,ADNI-011-06322,6322,11,ADNI3,72.7,Years,2,>=65,Male,White,6,Not Hispanic or Latino,NA,NA,NA,NA,NA,4/23/2018,NA,NA,NA,NA,NA,NA,NA,NA,NA,NA,NA,NA,NA,NA,NA,NA,NA,NA,NA,NA,NA,NA,NA,NA,NA,NA,NA,NA,NA,NA,NA,NA,NA,NA,NA,NA
ADNI,ADNI-011-06325,6325,11,ADNI3,73,Years,2,>=65,Female,White,6,Not Hispanic or Latino,NA,NA,NA,NA,NA,4/24/2018,NA,NA,NA,NA,NA,NA,NA,NA,NA,NA,NA,NA,NA,NA,NA,NA,NA,NA,NA,NA,NA,NA,NA,NA,NA,NA,NA,NA,NA,NA,NA,NA,NA,NA,NA,NA
ADNI,ADNI-011-06366,6366,11,ADNI3,58.7,Years,1,<65,Male,White,6,Hispanic or Latino,NA,NA,NA,NA,NA,6/21/2018,NA,NA,NA,NA,NA,NA,NA,NA,NA,NA,NA,NA,NA,NA,NA,NA,NA,NA,NA,NA,NA,NA,NA,NA,NA,NA,NA,NA,NA,NA,NA,NA,NA,NA,NA,NA
ADNI,ADNI-011-06424,6424,11,ADNI3,65.8,Years,2,>=65,Female,White,6,Not Hispanic or Latino,Y,NA,NA,NA,9/12/2018,NA,NA,NA,NA,16,Married,NA,NA,CN,Elevated,Non Elevated,FBB,6MM,3.67,5.67,0,0,1.641025641,1.076923077,0,74,NA,30,30,0,NA,NA,20,21,4,26.67,63,6,56,ε2/ε3,NA,4.013295
ADNI,ADNI-011-06437,6437,11,ADNI3,76.4,Years,2,>=65,Male,White,6,Not Hispanic or Latino,Y,NA,NA,NA,9/17/2018,NA,NA,NA,NA,16,Married,NA,NA,CN,Elevated,Non Elevated,FBB,6MM,4,6,0,0,1.307692308,1.315789474,0,74,NA,29,24,0,NA,NA,12,15,4,40,48,5,92,ε3/ε3,NA,-0.327345
ADNI,ADNI-011-06502,6502,11,ADNI3,66.9,Years,2,>=65,Female,White,6,Not Hispanic or Latino,Y,NA,NA,NA,9/20/2018,NA,NA,NA,NA,18,Married,NA,NA,CN,Elevated,Elevated,FBB,6MM,3,6,0,0,1.394736842,1.025641026,0,68,NA,30,27,0,NA,NA,13,16,6,50,54,5,56,ε3/ε4,NA,2.010164
ADNI,ADNI-011-06522,6522,11,ADNI3,71.2,Years,2,>=65,Male,White,6,Not Hispanic or Latino,Y,NA,NA,NA,10/4/2018,6/1/2022,NA,NA,NA,17,Married,NA,NA,CN,Non Elevated,Non Elevated,FBB,6MM,7.67,12.67,0,0,1.153846154,1,0,70,NA,30,25,0,NA,NA,10,12,5,55.56,43,3,90,ε2/ε3,NA,-1.035121
ADNI,ADNI-011-06584,6584,11,ADNI3,82.3,Years,2,>=65,Male,White,6,Not Hispanic or Latino,NA,NA,NA,NA,NA,9/20/2018,NA,NA,NA,NA,NA,NA,NA,NA,NA,NA,NA,NA,NA,NA,NA,NA,NA,NA,NA,NA,NA,NA,NA,NA,NA,NA,NA,NA,NA,NA,NA,NA,NA,NA,NA,NA
ADNI,ADNI-011-06765,6765,11,ADNI3,68.6,Years,2,>=65,Female,Black or African American,3,Not Hispanic or Latino,Y,NA,NA,NA,9/4/2019,NA,NA,NA,NA,16,Never married,NA,NA,MCI,Elevated,Elevated,FBB,6MM,9.33,12.33,0.5,1,1.263157895,1,0,53,NA,26,18,0,NA,NA,6,8,5,50,42,7,195,ε3/ε3,NA,-6.944528
ADNI,ADNI-011-06831,6831,11,ADNI3,76.3,Years,2,>=65,Female,Black or African American,3,Not Hispanic or Latino,Y,NA,NA,NA,1/6/2020,NA,NA,NA,NA,18,Married,NA,NA,CN,NA,NA,NA,NA,3.33,6.33,0,0,1.256410256,1.256410256,0,57,NA,30,24,0,NA,NA,14,15,3,21.43,58,7,95,ε4/ε4,NA,1.017788
ADNI,ADNI-011-06920,6920,11,ADNI3,65.4,Years,2,>=65,Female,Black or African American,3,Not Hispanic or Latino,Y,NA,NA,NA,7/15/2021,NA,NA,NA,NA,14,Divorced,NA,NA,CN,NA,NA,NA,NA,4,13,0,0.5,1.5,1.102564103,0,32,NA,27,18,0,NA,NA,9,11,6,60,41,4,127,ε3/ε3,NA,-6.269246
ADNI,ADNI-011-06935,6935,11,ADNI3,70.4,Years,2,>=65,Female,White,6,Hispanic or Latino,Y,NA,NA,NA,8/12/2021,NA,NA,NA,NA,20,Widowed,NA,NA,CN,Non Elevated,Elevated,FBB,6MM,7.33,10.33,0,0,1.230769231,1.205128205,0,68,NA,29,26,0,NA,NA,15,15,3,20,59,8,73,ε3/ε3,NA,0.57192
ADNI,ADNI-011-06944,6944,11,ADNI3,76.9,Years,2,>=65,Female,Black or African American,3,Not Hispanic or Latino,Y,NA,NA,NA,8/11/2021,NA,NA,NA,NA,18,Divorced,NA,NA,MCI,Elevated,Elevated,FBB,6MM,2.67,6.67,0.5,0.5,1.75,1.230769231,0,47,NA,27,22,0,NA,NA,6,10,13,100,36,9,300,ε3/ε3,NA,-6.10656
ADNI,ADNI-011-06988,6988,11,ADNI3,83.3,Years,2,>=65,Female,Black or African American,3,Not Hispanic or Latino,Y,NA,NA,NA,11/3/2021,NA,NA,NA,NA,14,Widowed,NA,NA,CN,Non Elevated,Non Elevated,FBB,6MM,4.33,8.33,0,0.5,1.743589744,1.027027027,0,48,NA,29,17,0,NA,NA,7,7,6,60,32,8,80,ε4/ε4,NA,-1.939049
ADNI,ADNI-011-06990,6990,11,ADNI3,68.1,Years,2,>=65,Female,Black or African American,3,Not Hispanic or Latino,NA,NA,NA,NA,NA,10/6/2021,NA,NA,NA,NA,NA,NA,NA,NA,NA,NA,NA,NA,NA,NA,NA,NA,NA,NA,NA,NA,NA,NA,NA,NA,NA,NA,NA,NA,NA,NA,NA,NA,NA,NA,NA,NA
ADNI,ADNI-011-07038,7038,11,ADNI3,68.6,Years,2,>=65,Female,Black or African American,3,Not Hispanic or Latino,NA,NA,NA,NA,NA,1/19/2022,NA,NA,NA,NA,NA,NA,NA,NA,NA,NA,NA,NA,NA,NA,NA,NA,NA,NA,NA,NA,NA,NA,NA,NA,NA,NA,NA,NA,NA,NA,NA,NA,NA,NA,NA,NA
ADNI,ADNI-011-07072,7072,11,ADNI3,62.6,Years,1,<65,Female,Black or African American,3,Not Hispanic or Latino,Y,NA,NA,NA,7/26/2022,NA,NA,NA,NA,16,Married,NA,NA,CN,NA,NA,NA,NA,4.33,6.33,0,0,2.128205128,1.025641026,0,70,NA,28,24,0,NA,NA,17,17,6,50,40,9,135,NA,NA,-0.679342
ADNI,ADNI-011-07080,7080,11,ADNI3,57.3,Years,1,<65,Female,White,6,Hispanic or Latino,Y,NA,NA,NA,7/12/2022,NA,NA,NA,NA,14,Married,NA,NA,CN,NA,NA,NA,NA,6.33,10.33,0,0,1.641025641,1.179487179,0,70,NA,29,24,0,NA,NA,7,8,2,40,22,2,40,ε3/ε3,NA,-0.788848
ADNI,ADNI-011-07084,7084,11,ADNI3,72.3,Years,2,>=65,Male,Black or African American,3,Unknown,NA,NA,NA,NA,NA,6/8/2022,NA,NA,NA,NA,NA,NA,NA,NA,NA,NA,NA,NA,NA,NA,NA,NA,NA,NA,NA,NA,NA,NA,NA,NA,NA,NA,NA,NA,NA,NA,NA,NA,NA,NA,NA,NA
ADNI,ADNI-011-10026,10026,11,ADNI4,71.2,Years,2,>=65,Female,White,6,Not Hispanic or Latino,NA,NA,NA,NA,NA,4/17/2024,NA,NA,NA,NA,NA,NA,NA,NA,NA,NA,NA,NA,NA,NA,NA,NA,NA,NA,NA,NA,NA,NA,NA,NA,NA,NA,NA,NA,NA,NA,NA,NA,NA,NA,NA,NA
ADNI,ADNI-011-10033,10033,11,ADNI4,70.4,Years,2,>=65,Female,White,6,Not Hispanic or Latino,NA,NA,NA,NA,NA,1/9/2024,NA,NA,NA,NA,NA,NA,NA,NA,NA,NA,NA,NA,NA,NA,NA,NA,NA,NA,NA,NA,NA,NA,NA,NA,NA,NA,NA,NA,NA,NA,NA,NA,NA,NA,NA,NA
ADNI,ADNI-011-10041,10041,11,ADNI4,56.1,Years,1,<65,Female,Black or African American,3,Not Hispanic or Latino,Y,NA,NA,NA,6/10/2024,NA,NA,NA,NA,16,Married,NA,NA,CN,Non Elevated,Non Elevated,FBP,6MM,5,8,0,0,NA,NA,0,NA,NA,29,28,8,NA,NA,11,12,8,53.33,54,9,69,ε3/ε4,NA,-0.436435
ADNI,ADNI-011-10044,10044,11,ADNI4,58,Years,1,<65,Female,White,6,Not Hispanic or Latino,NA,NA,NA,NA,NA,8/26/2024,NA,NA,NA,NA,NA,NA,NA,NA,NA,NA,NA,NA,NA,NA,NA,NA,NA,NA,NA,NA,NA,NA,NA,NA,NA,NA,NA,NA,NA,NA,NA,NA,NA,NA,NA,NA
ADNI,ADNI-011-10045,10045,11,ADNI4,59.5,Years,1,<65,Female,Black or African American,3,Not Hispanic or Latino,NA,NA,NA,NA,NA,8/7/2024,NA,NA,NA,NA,NA,NA,NA,NA,NA,NA,NA,NA,NA,NA,NA,NA,NA,NA,NA,NA,NA,NA,NA,NA,NA,NA,NA,NA,NA,NA,NA,NA,NA,NA,NA,NA
ADNI,ADNI-011-10257,10257,11,ADNI4,71,Years,2,>=65,Female,White,6,Not Hispanic or Latino,Y,NA,NA,NA,11/6/2024,NA,NA,NA,NA,18,Married,NA,NA,DEM,NA,NA,NA,NA,35.33,50.33,1,5,NA,NA,23,NA,NA,21,7,0,NA,NA,1,0,3,100,14,1,NA,NA,NA,-18.536917
ADNI,ADNI-011-10261,10261,11,ADNI4,75,Years,2,>=65,Male,Black or African American,3,Not Hispanic or Latino,Y,NA,NA,NA,10/7/2024,NA,NA,NA,NA,12,Married,NA,NA,CN,Non Elevated,Non Elevated,FBP,6MM,11,20,0,0,NA,NA,1,NA,NA,26,27,0,NA,NA,9,12,6,100,28,1,46,ε3/ε3,NA,-5.702146
ADNI,ADNI-011-10278,10278,11,ADNI4,70.6,Years,2,>=65,Female,White,6,Not Hispanic or Latino,Y,NA,NA,NA,10/30/2024,NA,NA,NA,NA,12,Married,NA,NA,CN,Non Elevated,Non Elevated,FBP,6MM,6.67,12.67,0,0,NA,NA,0,NA,NA,29,23,0,NA,NA,12,13,0,0,48,6,47,ε3/ε3,NA,-0.784091
ADNI,ADNI-011-10294,10294,11,ADNI4,65.7,Years,2,>=65,Male,White,6,Hispanic or Latino,NA,NA,NA,NA,NA,10/31/2024,NA,NA,NA,NA,NA,NA,NA,NA,NA,NA,NA,NA,NA,NA,NA,NA,NA,NA,NA,NA,NA,NA,NA,NA,NA,NA,NA,NA,NA,NA,NA,NA,NA,NA,NA,NA
ADNI,ADNI-011-10296,10296,11,ADNI4,67.8,Years,2,>=65,Male,White,6,Not Hispanic or Latino,Y,NA,NA,NA,11/25/2024,NA,NA,NA,NA,12,Married,NA,NA,DEM,Elevated,Elevated,FBP,6MM,18.33,30.33,0.5,2,NA,NA,2,NA,NA,24,20,0,NA,NA,2,5,5,83.33,31,1,300,NA,NA,-14.480759
ADNI,ADNI-011-10359,10359,11,ADNI4,69.1,Years,2,>=65,Female,White,6,Not Hispanic or Latino,Y,NA,NA,NA,4/2/2025,NA,NA,NA,NA,12,Divorced,NA,NA,MCI,Non Elevated,Non Elevated,FBP,6MM,10,16,0.5,1.5,NA,NA,3,NA,NA,28,23,13,NA,NA,3,9,1,14.29,27,4,116,NA,NA,-6.395431
ADNI,ADNI-011-10371,10371,11,ADNI4,71,Years,2,>=65,Male,Black or African American,3,Not Hispanic or Latino,Y,NA,NA,NA,1/15/2025,NA,NA,NA,NA,14,Married,NA,NA,CN,Non Elevated,Non Elevated,FBP,6MM,13,19,0,0,NA,NA,0,NA,NA,26,20,2,NA,NA,8,12,5,55.56,39,4,135,ε3/ε4,NA,-6.515324
ADNI,ADNI-011-10384,10384,11,ADNI4,65.4,Years,2,>=65,Female,Black or African American,3,Not Hispanic or Latino,Y,NA,NA,NA,2/13/2025,NA,NA,NA,NA,16,Divorced,NA,NA,CN,Non Elevated,Non Elevated,FBP,6MM,3.67,6.67,0,0,NA,NA,0,NA,NA,29,25,0,NA,NA,8,10,4,26.67,60,9,79,NA,NA,-1.102695
ADNI,ADNI-011-10385,10385,11,ADNI4,62.9,Years,1,<65,Female,Black or African American,3,Not Hispanic or Latino,NA,NA,NA,NA,NA,2/19/2025,NA,NA,NA,NA,NA,NA,NA,NA,NA,NA,NA,NA,NA,NA,NA,NA,NA,NA,NA,NA,NA,NA,NA,NA,NA,NA,NA,NA,NA,NA,NA,NA,NA,NA,NA,NA
ADNI,ADNI-011-10386,10386,11,ADNI4,65,Years,2,>=65,Female,White,6,Not Hispanic or Latino,NA,NA,NA,NA,NA,6/24/2025,NA,NA,NA,NA,NA,NA,NA,NA,NA,NA,NA,NA,NA,NA,NA,NA,NA,NA,NA,NA,NA,NA,NA,NA,NA,NA,NA,NA,NA,NA,NA,NA,NA,NA,NA,NA
ADNI,ADNI-011-10483,10483,11,ADNI4,72.9,Years,2,>=65,Male,Black or African American,3,Not Hispanic or Latino,Y,NA,NA,NA,4/23/2025,NA,NA,NA,NA,14,Married,NA,NA,MCI,NA,NA,NA,NA,17,25,0.5,0.5,NA,NA,1,NA,NA,27,17,1,NA,NA,4,6,4,44.44,30,7,93,NA,NA,-6.942846
ADNI,ADNI-011-10588,10588,11,ADNI4,59.6,Years,1,<65,Male,Black or African American,3,Not Hispanic or Latino,NA,NA,NA,NA,NA,4/17/2025,NA,NA,NA,NA,NA,NA,NA,NA,NA,NA,NA,NA,NA,NA,NA,NA,NA,NA,NA,NA,NA,NA,NA,NA,NA,NA,NA,NA,NA,NA,NA,NA,NA,NA,NA,NA
ADNI,ADNI-012-00985,985,12,ADNI1,81.7,Years,2,>=65,Male,White,6,Not Hispanic or Latino,Y,NA,NA,NA,11/3/2006,NA,NA,NA,NA,14,Widowed,NA,NA,CN,NA,NA,NA,NA,5.33,11.33,0,0,NA,NA,0,NA,2,30,NA,NA,1,33,8,12,6,100,23,6,83,ε2/ε4,-1.854903,-0.891405
ADNI,ADNI-012-01063,1063,12,ADNI1,78.4,Years,2,>=65,Female,Black or African American,3,Not Hispanic or Latino,Y,NA,NA,NA,11/16/2006,NA,NA,NA,NA,19,Widowed,NA,NA,CN,NA,NA,NA,NA,15.33,18.33,0,0,NA,NA,0,NA,0,29,NA,NA,0,51,9,11,4,30.77,51,7,83,ε3/ε4,-0.654943,-1.455921
ADNI,ADNI-012-01171,1171,12,ADNI1,71.5,Years,2,>=65,Male,White,6,Not Hispanic or Latino,Y,NA,NA,NA,1/12/2007,NA,NA,NA,NA,12,Married,NA,NA,DEM,NA,NA,NA,NA,12.33,20.33,0.5,3,NA,NA,4,NA,0,24,NA,NA,0,27,0,0,5,100,22,1,182,ε3/ε4,-11.915316,-12.273431
ADNI,ADNI-012-01307,1307,12,ADNI1,75.3,Years,2,>=65,Female,White,6,Not Hispanic or Latino,Y,NA,NA,NA,3/1/2007,NA,NA,NA,NA,13,Married,NA,NA,DEM,NA,NA,NA,NA,14.33,24.33,0.5,2.5,NA,NA,0,NA,3,24,NA,NA,0,36,0,4,3,100,21,0,195,ε3/ε4,-12.072527,-13.481199
ADNI,ADNI-012-01328,1328,12,ADNI1,71.5,Years,2,>=65,Male,White,6,Not Hispanic or Latino,NA,NA,NA,NA,NA,NA,NA,NA,NA,NA,NA,NA,NA,NA,NA,NA,NA,NA,NA,NA,NA,NA,NA,NA,NA,NA,NA,NA,NA,NA,NA,NA,NA,NA,NA,NA,NA,NA,NA,NA,NA,NA
ADNI,ADNI-012-01345,1345,12,ADNI1,72.6,Years,2,>=65,Male,White,6,Not Hispanic or Latino,NA,NA,NA,NA,NA,NA,NA,NA,NA,NA,NA,NA,NA,NA,NA,NA,NA,NA,NA,NA,NA,NA,NA,NA,NA,NA,NA,NA,NA,NA,NA,NA,NA,NA,NA,NA,NA,NA,NA,ε3/ε4,NA,NA
ADNI,ADNI-012-01393,1393,12,ADNI1,82.6,Years,2,>=65,Male,White,6,Not Hispanic or Latino,Y,NA,NA,NA,4/20/2007,NA,NA,NA,NA,18,Widowed,NA,NA,MCI,NA,NA,NA,NA,12,22,0.5,2.5,NA,NA,13,NA,1,27,NA,NA,4,43,0,7,7,100,31,1,123,ε3/ε3,-8.834311,-9.806282
ADNI,ADNI-012-01399,1399,12,ADNI1,64.4,Years,1,<65,Male,White,6,Not Hispanic or Latino,NA,NA,NA,NA,NA,NA,NA,NA,NA,NA,NA,NA,NA,NA,NA,NA,NA,NA,NA,NA,NA,NA,NA,NA,NA,NA,NA,NA,NA,NA,NA,NA,NA,NA,NA,NA,NA,NA,NA,ε3/ε4,NA,NA
ADNI,ADNI-012-01400,1400,12,ADNI1,77.9,Years,2,>=65,Male,White,6,Not Hispanic or Latino,Y,NA,NA,NA,5/25/2007,NA,NA,NA,NA,12,Married,NA,NA,MCI,NA,NA,NA,NA,13.67,20.67,0.5,1.5,NA,NA,6,NA,0,25,NA,NA,1,42,3,9,4,80,19,3,60,ε3/ε3,-8.735758,-7.869802
ADNI,ADNI-012-02007,2007,12,ADNIGO,83.5,Years,2,>=65,Female,White,6,Hispanic or Latino,Y,Yes,NA,NA,7/6/2010,6/30/2016,M,6/30/2016,M,20,Widowed,NA,NA,MCI,Elevated,Elevated,FBP,6MM,7,9,0.5,2.5,NA,NA,2,NA,0,29,NA,NA,1,NA,10,16,3,37.5,41,3,103,ε3/ε3,NA,-1.173849
ADNI,ADNI-012-02012,2012,12,ADNIGO,73.9,Years,2,>=65,Male,White,6,Not Hispanic or Latino,NA,NA,NA,NA,NA,NA,NA,NA,NA,NA,NA,NA,NA,NA,NA,NA,NA,NA,NA,NA,NA,NA,NA,NA,NA,NA,NA,NA,NA,NA,NA,NA,NA,NA,NA,NA,NA,NA,NA,NA,NA,NA
ADNI,ADNI-012-02016,2016,12,ADNIGO,NA,Years,NA,NA,NA,NA,NA,NA,NA,NA,NA,NA,NA,NA,NA,NA,NA,NA,NA,NA,NA,NA,NA,NA,NA,NA,NA,NA,NA,NA,NA,NA,NA,NA,NA,NA,NA,NA,NA,NA,NA,NA,NA,NA,NA,NA,NA,NA,NA,NA
ADNI,ADNI-012-02031,2031,12,ADNIGO,72.5,Years,2,>=65,Male,White,6,Not Hispanic or Latino,Y,NA,NA,NA,9/1/2010,NA,NA,NA,NA,16,Married,NA,NA,MCI,Non Elevated,Non Elevated,FBP,6MM,5.33,10.33,0.5,2,NA,NA,2,NA,4,27,NA,NA,9,NA,10,14,2,22.22,36,5,62,ε3/ε3,NA,-3.204992
ADNI,ADNI-012-02049,2049,12,ADNIGO,62.9,Years,1,<65,Male,White,6,Not Hispanic or Latino,NA,NA,NA,NA,NA,NA,NA,NA,NA,NA,NA,NA,NA,NA,NA,NA,NA,NA,NA,NA,NA,NA,NA,NA,NA,NA,NA,NA,NA,NA,NA,NA,NA,NA,NA,NA,NA,NA,NA,NA,NA,NA
ADNI,ADNI-012-02051,2051,12,ADNIGO,75.6,Years,2,>=65,Female,White,6,Not Hispanic or Latino,NA,NA,NA,NA,NA,NA,NA,NA,NA,NA,NA,NA,NA,NA,NA,NA,NA,NA,NA,NA,NA,NA,NA,NA,NA,NA,NA,NA,NA,NA,NA,NA,NA,NA,NA,NA,NA,NA,NA,NA,NA,NA
ADNI,ADNI-012-02086,2086,12,ADNIGO,72.1,Years,2,>=65,Female,White,6,Hispanic or Latino,NA,NA,NA,NA,NA,NA,NA,NA,NA,NA,NA,NA,NA,NA,NA,NA,NA,NA,NA,NA,NA,NA,NA,NA,NA,NA,NA,NA,NA,NA,NA,NA,NA,NA,NA,NA,NA,NA,NA,NA,NA,NA
ADNI,ADNI-012-02088,2088,12,ADNIGO,NA,Years,NA,NA,NA,NA,NA,NA,NA,NA,NA,NA,NA,NA,NA,NA,NA,NA,NA,NA,NA,NA,NA,NA,NA,NA,NA,NA,NA,NA,NA,NA,NA,NA,NA,NA,NA,NA,NA,NA,NA,NA,NA,NA,NA,NA,NA,NA,NA,NA
ADNI,ADNI-012-02284,2284,12,ADNIGO,76.6,Years,2,>=65,Male,White,6,Hispanic or Latino,Y,NA,NA,NA,2/24/2011,NA,NA,NA,NA,16,Married,NA,NA,MCI,Elevated,Elevated,FBP,6MM,9.33,14.33,0.5,1.5,NA,NA,0,NA,1,29,NA,NA,2,NA,10,11,4,36.36,38,8,82,ε3/ε4,NA,-1.660111
ADNI,ADNI-012-02286,2286,12,ADNIGO,74.6,Years,2,>=65,Male,White,6,Not Hispanic or Latino,NA,NA,NA,NA,NA,NA,NA,NA,NA,NA,NA,NA,NA,NA,NA,NA,NA,NA,NA,NA,NA,NA,NA,NA,NA,NA,NA,NA,NA,NA,NA,NA,NA,NA,NA,NA,NA,NA,NA,NA,NA,NA
ADNI,ADNI-012-02300,2300,12,ADNIGO,69.2,Years,2,>=65,Female,White,6,Not Hispanic or Latino,NA,NA,NA,NA,NA,NA,NA,NA,NA,NA,NA,NA,NA,NA,NA,NA,NA,NA,NA,NA,NA,NA,NA,NA,NA,NA,NA,NA,NA,NA,NA,NA,NA,NA,NA,NA,NA,NA,NA,NA,NA,NA
ADNI,ADNI-012-04009,4009,12,ADNI2,90.3,Years,2,>=65,Male,White,6,Hispanic or Latino,Y,NA,NA,NA,6/28/2011,NA,NA,NA,NA,17,Married,NA,NA,DEM,Non Elevated,Non Elevated,FBP,6MM,15.33,25.33,1,8,NA,NA,26,NA,1,24,NA,8,NA,NA,0,0,3,60,25,1,300,ε3/ε3,NA,-12.974184
ADNI,ADNI-012-04025,4025,12,ADNI2,NA,Years,NA,NA,NA,NA,NA,NA,NA,NA,NA,NA,NA,NA,NA,NA,NA,NA,NA,NA,NA,NA,NA,NA,NA,NA,NA,NA,NA,NA,NA,NA,NA,NA,NA,NA,NA,NA,NA,NA,NA,NA,NA,NA,NA,NA,NA,NA,NA,NA
ADNI,ADNI-012-04097,4097,12,ADNI2,70.8,Years,2,>=65,Female,White,6,Hispanic or Latino,Y,NA,NA,NA,8/1/2011,NA,NA,NA,NA,16,Divorced,NA,NA,CN,Non Elevated,Non Elevated,FBP,6MM,6.33,10.33,0,0,NA,NA,0,NA,1,30,NA,0,NA,NA,11,12,5,41.67,46,7,137,ε3/ε3,NA,-1.250487
ADNI,ADNI-012-04121,4121,12,ADNI2,89,Years,2,>=65,Male,White,6,Not Hispanic or Latino,Y,NA,NA,NA,8/8/2011,NA,NA,NA,NA,16,Widowed,NA,NA,CN,Non Elevated,Non Elevated,FBP,6MM,5.33,9.33,0,0,NA,NA,0,NA,1,27,NA,0,NA,NA,9,9,3,42.86,31,3,117,ε3/ε3,NA,-4.510563
ADNI,ADNI-012-04129,4129,12,ADNI2,84.9,Years,2,>=65,Female,White,6,Not Hispanic or Latino,NA,NA,NA,NA,NA,NA,NA,NA,NA,NA,NA,NA,NA,NA,NA,NA,NA,NA,NA,NA,NA,NA,NA,NA,NA,NA,NA,NA,NA,NA,NA,NA,NA,NA,NA,NA,NA,NA,NA,NA,NA,NA
ADNI,ADNI-012-04145,4145,12,ADNI2,71.1,Years,2,>=65,Male,White,6,Not Hispanic or Latino,NA,NA,NA,NA,NA,NA,NA,NA,NA,NA,NA,NA,NA,NA,NA,NA,NA,NA,NA,NA,NA,NA,NA,NA,NA,NA,NA,NA,NA,NA,NA,NA,NA,NA,NA,NA,NA,NA,NA,NA,NA,NA
ADNI,ADNI-012-04191,4191,12,ADNI2,79.8,Years,2,>=65,Male,White,6,Not Hispanic or Latino,NA,NA,NA,NA,NA,NA,NA,NA,NA,NA,NA,NA,NA,NA,NA,NA,NA,NA,NA,NA,NA,NA,NA,NA,NA,NA,NA,NA,NA,NA,NA,NA,NA,NA,NA,NA,NA,NA,NA,NA,NA,NA
ADNI,ADNI-012-04298,4298,12,ADNI2,NA,Years,NA,NA,NA,NA,NA,NA,NA,NA,NA,NA,NA,NA,NA,NA,NA,NA,NA,NA,NA,NA,NA,NA,NA,NA,NA,NA,NA,NA,NA,NA,NA,NA,NA,NA,NA,NA,NA,NA,NA,NA,NA,NA,NA,NA,NA,NA,NA,NA
